STUDYID,DOMAIN,USUBJID,LBSEQ,LBTESTCD,LBTEST,LBORRES,LBORRESU,LBSTRESC,LBSTRESN,LBSTRESU,LBSTNRLO,LBSTNRHI,LBNRIND,LBSTAT,LBREASND,LBBLFL,LBNAM,LBSPEC,LBMETHOD,VISIT,VISITDY,LBDTC,LBDY
NCSTUDY01,LB,NCSTUDY01-ANIMAL0001,1,HGB,Hemoglobin,12.1,g/dL,12.1,12.1,g/dL,12.0,18.0,N,,,Y,CENTRAL LAB,BLOOD,AUTOMATED,PRE-DOSE,0,2025-08-16,0
NCSTUDY01,LB,NCSTUDY01-ANIMAL0001,2,RBC,Red Blood Cell Count,6.5,10^6/µL,6.5,6.5,10^6/µL,6.0,10.0,N,,,Y,CENTRAL LAB,BLOOD,AUTOMATED,PRE-DOSE,0,2025-08-16,0
NCSTUDY01,LB,NCSTUDY01-ANIMAL0001,3,WBC,White Blood Cell Count,12.3,10^3/µL,12.3,12.3,10^3/µL,5.0,15.0,N,,,Y,CENTRAL LAB,BLOOD,AUTOMATED,PRE-DOSE,0,2025-08-16,0
NCSTUDY01,LB,NCSTUDY01-ANIMAL0001,4,PLT,Platelet Count,586.9,10^3/µL,586.9,586.9,10^3/µL,500.0,1300.0,N,,,Y,CENTRAL LAB,BLOOD,AUTOMATED,PRE-DOSE,0,2025-08-16,0
NCSTUDY01,LB,NCSTUDY01-ANIMAL0001,5,ALT,Alanine Aminotransferase,65.8,U/L,65.8,65.8,U/L,20.0,90.0,N,,,Y,CENTRAL LAB,BLOOD,AUTOMATED,PRE-DOSE,0,2025-08-16,0
NCSTUDY01,LB,NCSTUDY01-ANIMAL0001,6,AST,Aspartate Aminotransferase,91.9,U/L,91.9,91.9,U/L,40.0,120.0,N,,,Y,CENTRAL LAB,BLOOD,AUTOMATED,PRE-DOSE,0,2025-08-16,0
NCSTUDY01,LB,NCSTUDY01-ANIMAL0001,7,GLUC,Glucose,110.0,mg/dL,110.0,110.0,mg/dL,70.0,150.0,N,,,Y,CENTRAL LAB,BLOOD,AUTOMATED,PRE-DOSE,0,2025-08-16,0
NCSTUDY01,LB,NCSTUDY01-ANIMAL0001,8,CREAT,Creatinine,0.3,mg/dL,0.3,0.3,mg/dL,0.2,0.6,N,,,Y,CENTRAL LAB,BLOOD,AUTOMATED,PRE-DOSE,0,2025-08-16,0
NCSTUDY01,LB,NCSTUDY01-ANIMAL0001,9,HGB,Hemoglobin,11.7,g/dL,11.7,11.7,g/dL,12.0,18.0,L,,,N,CENTRAL LAB,BLOOD,AUTOMATED,WEEK 2,14,2025-08-30,14
NCSTUDY01,LB,NCSTUDY01-ANIMAL0001,10,RBC,Red Blood Cell Count,6.2,10^6/µL,6.2,6.2,10^6/µL,6.0,10.0,N,,,N,CENTRAL LAB,BLOOD,AUTOMATED,WEEK 2,14,2025-08-30,14
NCSTUDY01,LB,NCSTUDY01-ANIMAL0001,11,WBC,White Blood Cell Count,13.2,10^3/µL,13.2,13.2,10^3/µL,5.0,15.0,N,,,N,CENTRAL LAB,BLOOD,AUTOMATED,WEEK 2,14,2025-08-30,14
NCSTUDY01,LB,NCSTUDY01-ANIMAL0001,12,PLT,Platelet Count,628.0,10^3/µL,628.0,628.0,10^3/µL,500.0,1300.0,N,,,N,CENTRAL LAB,BLOOD,AUTOMATED,WEEK 2,14,2025-08-30,14
NCSTUDY01,LB,NCSTUDY01-ANIMAL0001,13,ALT,Alanine Aminotransferase,65.9,U/L,65.9,65.9,U/L,20.0,90.0,N,,,N,CENTRAL LAB,BLOOD,AUTOMATED,WEEK 2,14,2025-08-30,14
NCSTUDY01,LB,NCSTUDY01-ANIMAL0001,14,AST,Aspartate Aminotransferase,103.0,U/L,103.0,103.0,U/L,40.0,120.0,N,,,N,CENTRAL LAB,BLOOD,AUTOMATED,WEEK 2,14,2025-08-30,14
NCSTUDY01,LB,NCSTUDY01-ANIMAL0001,15,GLUC,Glucose,107.0,mg/dL,107.0,107.0,mg/dL,70.0,150.0,N,,,N,CENTRAL LAB,BLOOD,AUTOMATED,WEEK 2,14,2025-08-30,14
NCSTUDY01,LB,NCSTUDY01-ANIMAL0001,16,CREAT,Creatinine,0.3,mg/dL,0.3,0.3,mg/dL,0.2,0.6,N,,,N,CENTRAL LAB,BLOOD,AUTOMATED,WEEK 2,14,2025-08-30,14
NCSTUDY01,LB,NCSTUDY01-ANIMAL0001,17,HGB,Hemoglobin,12.4,g/dL,12.4,12.4,g/dL,12.0,18.0,N,,,N,CENTRAL LAB,BLOOD,AUTOMATED,WEEK 4,28,2025-09-13,28
NCSTUDY01,LB,NCSTUDY01-ANIMAL0001,18,RBC,Red Blood Cell Count,5.9,10^6/µL,5.9,5.9,10^6/µL,6.0,10.0,L,,,N,CENTRAL LAB,BLOOD,AUTOMATED,WEEK 4,28,2025-09-13,28
NCSTUDY01,LB,NCSTUDY01-ANIMAL0001,19,WBC,White Blood Cell Count,10.2,10^3/µL,10.2,10.2,10^3/µL,5.0,15.0,N,,,N,CENTRAL LAB,BLOOD,AUTOMATED,WEEK 4,28,2025-09-13,28
NCSTUDY01,LB,NCSTUDY01-ANIMAL0001,20,PLT,Platelet Count,560.8,10^3/µL,560.8,560.8,10^3/µL,500.0,1300.0,N,,,N,CENTRAL LAB,BLOOD,AUTOMATED,WEEK 4,28,2025-09-13,28
NCSTUDY01,LB,NCSTUDY01-ANIMAL0001,21,ALT,Alanine Aminotransferase,75.3,U/L,75.3,75.3,U/L,20.0,90.0,N,,,N,CENTRAL LAB,BLOOD,AUTOMATED,WEEK 4,28,2025-09-13,28
NCSTUDY01,LB,NCSTUDY01-ANIMAL0001,22,AST,Aspartate Aminotransferase,97.0,U/L,97.0,97.0,U/L,40.0,120.0,N,,,N,CENTRAL LAB,BLOOD,AUTOMATED,WEEK 4,28,2025-09-13,28
NCSTUDY01,LB,NCSTUDY01-ANIMAL0001,23,GLUC,Glucose,129.8,mg/dL,129.8,129.8,mg/dL,70.0,150.0,N,,,N,CENTRAL LAB,BLOOD,AUTOMATED,WEEK 4,28,2025-09-13,28
NCSTUDY01,LB,NCSTUDY01-ANIMAL0001,24,CREAT,Creatinine,0.3,mg/dL,0.3,0.3,mg/dL,0.2,0.6,N,,,N,CENTRAL LAB,BLOOD,AUTOMATED,WEEK 4,28,2025-09-13,28
NCSTUDY01,LB,NCSTUDY01-ANIMAL0002,1,HGB,Hemoglobin,13.8,g/dL,13.8,13.8,g/dL,12.0,18.0,N,,,Y,CENTRAL LAB,BLOOD,AUTOMATED,PRE-DOSE,0,2025-10-19,0
NCSTUDY01,LB,NCSTUDY01-ANIMAL0002,2,RBC,Red Blood Cell Count,6.6,10^6/µL,6.6,6.6,10^6/µL,6.0,10.0,N,,,Y,CENTRAL LAB,BLOOD,AUTOMATED,PRE-DOSE,0,2025-10-19,0
NCSTUDY01,LB,NCSTUDY01-ANIMAL0002,3,WBC,White Blood Cell Count,7.7,10^3/µL,7.7,7.7,10^3/µL,5.0,15.0,N,,,Y,CENTRAL LAB,BLOOD,AUTOMATED,PRE-DOSE,0,2025-10-19,0
NCSTUDY01,LB,NCSTUDY01-ANIMAL0002,4,PLT,Platelet Count,637.7,10^3/µL,637.7,637.7,10^3/µL,500.0,1300.0,N,,,Y,CENTRAL LAB,BLOOD,AUTOMATED,PRE-DOSE,0,2025-10-19,0
NCSTUDY01,LB,NCSTUDY01-ANIMAL0002,5,ALT,Alanine Aminotransferase,22.2,U/L,22.2,22.2,U/L,20.0,90.0,N,,,Y,CENTRAL LAB,BLOOD,AUTOMATED,PRE-DOSE,0,2025-10-19,0
NCSTUDY01,LB,NCSTUDY01-ANIMAL0002,6,AST,Aspartate Aminotransferase,74.2,U/L,74.2,74.2,U/L,40.0,120.0,N,,,Y,CENTRAL LAB,BLOOD,AUTOMATED,PRE-DOSE,0,2025-10-19,0
NCSTUDY01,LB,NCSTUDY01-ANIMAL0002,7,GLUC,Glucose,76.5,mg/dL,76.5,76.5,mg/dL,70.0,150.0,N,,,Y,CENTRAL LAB,BLOOD,AUTOMATED,PRE-DOSE,0,2025-10-19,0
NCSTUDY01,LB,NCSTUDY01-ANIMAL0002,8,CREAT,Creatinine,0.4,mg/dL,0.4,0.4,mg/dL,0.2,0.6,N,,,Y,CENTRAL LAB,BLOOD,AUTOMATED,PRE-DOSE,0,2025-10-19,0
NCSTUDY01,LB,NCSTUDY01-ANIMAL0002,9,HGB,Hemoglobin,15.3,g/dL,15.3,15.3,g/dL,12.0,18.0,N,,,N,CENTRAL LAB,BLOOD,AUTOMATED,WEEK 2,14,2025-11-02,14
NCSTUDY01,LB,NCSTUDY01-ANIMAL0002,10,RBC,Red Blood Cell Count,6.2,10^6/µL,6.2,6.2,10^6/µL,6.0,10.0,N,,,N,CENTRAL LAB,BLOOD,AUTOMATED,WEEK 2,14,2025-11-02,14
NCSTUDY01,LB,NCSTUDY01-ANIMAL0002,11,WBC,White Blood Cell Count,7.4,10^3/µL,7.4,7.4,10^3/µL,5.0,15.0,N,,,N,CENTRAL LAB,BLOOD,AUTOMATED,WEEK 2,14,2025-11-02,14
NCSTUDY01,LB,NCSTUDY01-ANIMAL0002,12,PLT,Platelet Count,699.8,10^3/µL,699.8,699.8,10^3/µL,500.0,1300.0,N,,,N,CENTRAL LAB,BLOOD,AUTOMATED,WEEK 2,14,2025-11-02,14
NCSTUDY01,LB,NCSTUDY01-ANIMAL0002,13,ALT,Alanine Aminotransferase,22.6,U/L,22.6,22.6,U/L,20.0,90.0,N,,,N,CENTRAL LAB,BLOOD,AUTOMATED,WEEK 2,14,2025-11-02,14
NCSTUDY01,LB,NCSTUDY01-ANIMAL0002,14,AST,Aspartate Aminotransferase,78.4,U/L,78.4,78.4,U/L,40.0,120.0,N,,,N,CENTRAL LAB,BLOOD,AUTOMATED,WEEK 2,14,2025-11-02,14
NCSTUDY01,LB,NCSTUDY01-ANIMAL0002,15,GLUC,Glucose,74.3,mg/dL,74.3,74.3,mg/dL,70.0,150.0,N,,,N,CENTRAL LAB,BLOOD,AUTOMATED,WEEK 2,14,2025-11-02,14
NCSTUDY01,LB,NCSTUDY01-ANIMAL0002,16,CREAT,Creatinine,0.4,mg/dL,0.4,0.4,mg/dL,0.2,0.6,N,,,N,CENTRAL LAB,BLOOD,AUTOMATED,WEEK 2,14,2025-11-02,14
NCSTUDY01,LB,NCSTUDY01-ANIMAL0002,17,HGB,Hemoglobin,12.6,g/dL,12.6,12.6,g/dL,12.0,18.0,N,,,N,CENTRAL LAB,BLOOD,AUTOMATED,WEEK 4,28,2025-11-16,28
NCSTUDY01,LB,NCSTUDY01-ANIMAL0002,18,RBC,Red Blood Cell Count,6.6,10^6/µL,6.6,6.6,10^6/µL,6.0,10.0,N,,,N,CENTRAL LAB,BLOOD,AUTOMATED,WEEK 4,28,2025-11-16,28
NCSTUDY01,LB,NCSTUDY01-ANIMAL0002,19,WBC,White Blood Cell Count,8.4,10^3/µL,8.4,8.4,10^3/µL,5.0,15.0,N,,,N,CENTRAL LAB,BLOOD,AUTOMATED,WEEK 4,28,2025-11-16,28
NCSTUDY01,LB,NCSTUDY01-ANIMAL0002,20,PLT,Platelet Count,686.7,10^3/µL,686.7,686.7,10^3/µL,500.0,1300.0,N,,,N,CENTRAL LAB,BLOOD,AUTOMATED,WEEK 4,28,2025-11-16,28
NCSTUDY01,LB,NCSTUDY01-ANIMAL0002,21,ALT,Alanine Aminotransferase,25.4,U/L,25.4,25.4,U/L,20.0,90.0,N,,,N,CENTRAL LAB,BLOOD,AUTOMATED,WEEK 4,28,2025-11-16,28
NCSTUDY01,LB,NCSTUDY01-ANIMAL0002,22,AST,Aspartate Aminotransferase,71.6,U/L,71.6,71.6,U/L,40.0,120.0,N,,,N,CENTRAL LAB,BLOOD,AUTOMATED,WEEK 4,28,2025-11-16,28
NCSTUDY01,LB,NCSTUDY01-ANIMAL0002,23,GLUC,Glucose,87.7,mg/dL,87.7,87.7,mg/dL,70.0,150.0,N,,,N,CENTRAL LAB,BLOOD,AUTOMATED,WEEK 4,28,2025-11-16,28
NCSTUDY01,LB,NCSTUDY01-ANIMAL0002,24,CREAT,Creatinine,0.5,mg/dL,0.5,0.5,mg/dL,0.2,0.6,N,,,N,CENTRAL LAB,BLOOD,AUTOMATED,WEEK 4,28,2025-11-16,28
NCSTUDY01,LB,NCSTUDY01-ANIMAL0003,1,HGB,Hemoglobin,14.9,g/dL,14.9,14.9,g/dL,12.0,18.0,N,,,Y,CENTRAL LAB,BLOOD,AUTOMATED,PRE-DOSE,0,2025-09-03,0
NCSTUDY01,LB,NCSTUDY01-ANIMAL0003,2,RBC,Red Blood Cell Count,7.3,10^6/µL,7.3,7.3,10^6/µL,6.0,10.0,N,,,Y,CENTRAL LAB,BLOOD,AUTOMATED,PRE-DOSE,0,2025-09-03,0
NCSTUDY01,LB,NCSTUDY01-ANIMAL0003,3,WBC,White Blood Cell Count,10.5,10^3/µL,10.5,10.5,10^3/µL,5.0,15.0,N,,,Y,CENTRAL LAB,BLOOD,AUTOMATED,PRE-DOSE,0,2025-09-03,0
NCSTUDY01,LB,NCSTUDY01-ANIMAL0003,4,PLT,Platelet Count,737.1,10^3/µL,737.1,737.1,10^3/µL,500.0,1300.0,N,,,Y,CENTRAL LAB,BLOOD,AUTOMATED,PRE-DOSE,0,2025-09-03,0
NCSTUDY01,LB,NCSTUDY01-ANIMAL0003,5,ALT,Alanine Aminotransferase,64.9,U/L,64.9,64.9,U/L,20.0,90.0,N,,,Y,CENTRAL LAB,BLOOD,AUTOMATED,PRE-DOSE,0,2025-09-03,0
NCSTUDY01,LB,NCSTUDY01-ANIMAL0003,6,AST,Aspartate Aminotransferase,118.4,U/L,118.4,118.4,U/L,40.0,120.0,N,,,Y,CENTRAL LAB,BLOOD,AUTOMATED,PRE-DOSE,0,2025-09-03,0
NCSTUDY01,LB,NCSTUDY01-ANIMAL0003,7,GLUC,Glucose,104.0,mg/dL,104.0,104.0,mg/dL,70.0,150.0,N,,,Y,CENTRAL LAB,BLOOD,AUTOMATED,PRE-DOSE,0,2025-09-03,0
NCSTUDY01,LB,NCSTUDY01-ANIMAL0003,8,CREAT,Creatinine,0.5,mg/dL,0.5,0.5,mg/dL,0.2,0.6,N,,,Y,CENTRAL LAB,BLOOD,AUTOMATED,PRE-DOSE,0,2025-09-03,0
NCSTUDY01,LB,NCSTUDY01-ANIMAL0003,9,HGB,Hemoglobin,14.8,g/dL,14.8,14.8,g/dL,12.0,18.0,N,,,N,CENTRAL LAB,BLOOD,AUTOMATED,WEEK 2,14,2025-09-17,14
NCSTUDY01,LB,NCSTUDY01-ANIMAL0003,10,RBC,Red Blood Cell Count,7.3,10^6/µL,7.3,7.3,10^6/µL,6.0,10.0,N,,,N,CENTRAL LAB,BLOOD,AUTOMATED,WEEK 2,14,2025-09-17,14
NCSTUDY01,LB,NCSTUDY01-ANIMAL0003,11,WBC,White Blood Cell Count,10.8,10^3/µL,10.8,10.8,10^3/µL,5.0,15.0,N,,,N,CENTRAL LAB,BLOOD,AUTOMATED,WEEK 2,14,2025-09-17,14
NCSTUDY01,LB,NCSTUDY01-ANIMAL0003,12,PLT,Platelet Count,746.7,10^3/µL,746.7,746.7,10^3/µL,500.0,1300.0,N,,,N,CENTRAL LAB,BLOOD,AUTOMATED,WEEK 2,14,2025-09-17,14
NCSTUDY01,LB,NCSTUDY01-ANIMAL0003,13,ALT,Alanine Aminotransferase,62.4,U/L,62.4,62.4,U/L,20.0,90.0,N,,,N,CENTRAL LAB,BLOOD,AUTOMATED,WEEK 2,14,2025-09-17,14
NCSTUDY01,LB,NCSTUDY01-ANIMAL0003,14,AST,Aspartate Aminotransferase,122.7,U/L,122.7,122.7,U/L,40.0,120.0,H,,,N,CENTRAL LAB,BLOOD,AUTOMATED,WEEK 2,14,2025-09-17,14
NCSTUDY01,LB,NCSTUDY01-ANIMAL0003,15,GLUC,Glucose,106.9,mg/dL,106.9,106.9,mg/dL,70.0,150.0,N,,,N,CENTRAL LAB,BLOOD,AUTOMATED,WEEK 2,14,2025-09-17,14
NCSTUDY01,LB,NCSTUDY01-ANIMAL0003,16,CREAT,Creatinine,0.5,mg/dL,0.5,0.5,mg/dL,0.2,0.6,N,,,N,CENTRAL LAB,BLOOD,AUTOMATED,WEEK 2,14,2025-09-17,14
NCSTUDY01,LB,NCSTUDY01-ANIMAL0003,17,HGB,Hemoglobin,14.6,g/dL,14.6,14.6,g/dL,12.0,18.0,N,,,N,CENTRAL LAB,BLOOD,AUTOMATED,WEEK 4,28,2025-10-01,28
NCSTUDY01,LB,NCSTUDY01-ANIMAL0003,18,RBC,Red Blood Cell Count,7.7,10^6/µL,7.7,7.7,10^6/µL,6.0,10.0,N,,,N,CENTRAL LAB,BLOOD,AUTOMATED,WEEK 4,28,2025-10-01,28
NCSTUDY01,LB,NCSTUDY01-ANIMAL0003,19,WBC,White Blood Cell Count,11.1,10^3/µL,11.1,11.1,10^3/µL,5.0,15.0,N,,,N,CENTRAL LAB,BLOOD,AUTOMATED,WEEK 4,28,2025-10-01,28
NCSTUDY01,LB,NCSTUDY01-ANIMAL0003,20,PLT,Platelet Count,749.0,10^3/µL,749.0,749.0,10^3/µL,500.0,1300.0,N,,,N,CENTRAL LAB,BLOOD,AUTOMATED,WEEK 4,28,2025-10-01,28
NCSTUDY01,LB,NCSTUDY01-ANIMAL0003,21,ALT,Alanine Aminotransferase,61.2,U/L,61.2,61.2,U/L,20.0,90.0,N,,,N,CENTRAL LAB,BLOOD,AUTOMATED,WEEK 4,28,2025-10-01,28
NCSTUDY01,LB,NCSTUDY01-ANIMAL0003,22,AST,Aspartate Aminotransferase,123.4,U/L,123.4,123.4,U/L,40.0,120.0,H,,,N,CENTRAL LAB,BLOOD,AUTOMATED,WEEK 4,28,2025-10-01,28
NCSTUDY01,LB,NCSTUDY01-ANIMAL0003,23,GLUC,Glucose,107.0,mg/dL,107.0,107.0,mg/dL,70.0,150.0,N,,,N,CENTRAL LAB,BLOOD,AUTOMATED,WEEK 4,28,2025-10-01,28
NCSTUDY01,LB,NCSTUDY01-ANIMAL0003,24,CREAT,Creatinine,0.5,mg/dL,0.5,0.5,mg/dL,0.2,0.6,N,,,N,CENTRAL LAB,BLOOD,AUTOMATED,WEEK 4,28,2025-10-01,28
NCSTUDY01,LB,NCSTUDY01-ANIMAL0004,1,HGB,Hemoglobin,16.9,g/dL,16.9,16.9,g/dL,12.0,18.0,N,,,Y,CENTRAL LAB,BLOOD,AUTOMATED,PRE-DOSE,0,2025-08-19,0
NCSTUDY01,LB,NCSTUDY01-ANIMAL0004,2,RBC,Red Blood Cell Count,9.5,10^6/µL,9.5,9.5,10^6/µL,6.0,10.0,N,,,Y,CENTRAL LAB,BLOOD,AUTOMATED,PRE-DOSE,0,2025-08-19,0
NCSTUDY01,LB,NCSTUDY01-ANIMAL0004,3,WBC,White Blood Cell Count,10.1,10^3/µL,10.1,10.1,10^3/µL,5.0,15.0,N,,,Y,CENTRAL LAB,BLOOD,AUTOMATED,PRE-DOSE,0,2025-08-19,0
NCSTUDY01,LB,NCSTUDY01-ANIMAL0004,4,PLT,Platelet Count,916.2,10^3/µL,916.2,916.2,10^3/µL,500.0,1300.0,N,,,Y,CENTRAL LAB,BLOOD,AUTOMATED,PRE-DOSE,0,2025-08-19,0
NCSTUDY01,LB,NCSTUDY01-ANIMAL0004,5,ALT,Alanine Aminotransferase,90.8,U/L,90.8,90.8,U/L,20.0,90.0,H,,,Y,CENTRAL LAB,BLOOD,AUTOMATED,PRE-DOSE,0,2025-08-19,0
NCSTUDY01,LB,NCSTUDY01-ANIMAL0004,6,AST,Aspartate Aminotransferase,122.4,U/L,122.4,122.4,U/L,40.0,120.0,H,,,Y,CENTRAL LAB,BLOOD,AUTOMATED,PRE-DOSE,0,2025-08-19,0
NCSTUDY01,LB,NCSTUDY01-ANIMAL0004,7,GLUC,Glucose,85.6,mg/dL,85.6,85.6,mg/dL,70.0,150.0,N,,,Y,CENTRAL LAB,BLOOD,AUTOMATED,PRE-DOSE,0,2025-08-19,0
NCSTUDY01,LB,NCSTUDY01-ANIMAL0004,8,CREAT,Creatinine,0.6,mg/dL,0.6,0.6,mg/dL,0.2,0.6,N,,,Y,CENTRAL LAB,BLOOD,AUTOMATED,PRE-DOSE,0,2025-08-19,0
NCSTUDY01,LB,NCSTUDY01-ANIMAL0004,9,HGB,Hemoglobin,17.1,g/dL,17.1,17.1,g/dL,12.0,18.0,N,,,N,CENTRAL LAB,BLOOD,AUTOMATED,WEEK 2,14,2025-09-02,14
NCSTUDY01,LB,NCSTUDY01-ANIMAL0004,10,RBC,Red Blood Cell Count,9.2,10^6/µL,9.2,9.2,10^6/µL,6.0,10.0,N,,,N,CENTRAL LAB,BLOOD,AUTOMATED,WEEK 2,14,2025-09-02,14
NCSTUDY01,LB,NCSTUDY01-ANIMAL0004,11,WBC,White Blood Cell Count,10.8,10^3/µL,10.8,10.8,10^3/µL,5.0,15.0,N,,,N,CENTRAL LAB,BLOOD,AUTOMATED,WEEK 2,14,2025-09-02,14
NCSTUDY01,LB,NCSTUDY01-ANIMAL0004,12,PLT,Platelet Count,923.9,10^3/µL,923.9,923.9,10^3/µL,500.0,1300.0,N,,,N,CENTRAL LAB,BLOOD,AUTOMATED,WEEK 2,14,2025-09-02,14
NCSTUDY01,LB,NCSTUDY01-ANIMAL0004,13,ALT,Alanine Aminotransferase,94.7,U/L,94.7,94.7,U/L,20.0,90.0,H,,,N,CENTRAL LAB,BLOOD,AUTOMATED,WEEK 2,14,2025-09-02,14
NCSTUDY01,LB,NCSTUDY01-ANIMAL0004,14,AST,Aspartate Aminotransferase,119.0,U/L,119.0,119.0,U/L,40.0,120.0,N,,,N,CENTRAL LAB,BLOOD,AUTOMATED,WEEK 2,14,2025-09-02,14
NCSTUDY01,LB,NCSTUDY01-ANIMAL0004,15,GLUC,Glucose,81.9,mg/dL,81.9,81.9,mg/dL,70.0,150.0,N,,,N,CENTRAL LAB,BLOOD,AUTOMATED,WEEK 2,14,2025-09-02,14
NCSTUDY01,LB,NCSTUDY01-ANIMAL0004,16,CREAT,Creatinine,0.6,mg/dL,0.6,0.6,mg/dL,0.2,0.6,N,,,N,CENTRAL LAB,BLOOD,AUTOMATED,WEEK 2,14,2025-09-02,14
NCSTUDY01,LB,NCSTUDY01-ANIMAL0004,17,HGB,Hemoglobin,17.0,g/dL,17.0,17.0,g/dL,12.0,18.0,N,,,N,CENTRAL LAB,BLOOD,AUTOMATED,WEEK 4,28,2025-09-16,28
NCSTUDY01,LB,NCSTUDY01-ANIMAL0004,18,RBC,Red Blood Cell Count,11.1,10^6/µL,11.1,11.1,10^6/µL,6.0,10.0,H,,,N,CENTRAL LAB,BLOOD,AUTOMATED,WEEK 4,28,2025-09-16,28
NCSTUDY01,LB,NCSTUDY01-ANIMAL0004,19,WBC,White Blood Cell Count,11.2,10^3/µL,11.2,11.2,10^3/µL,5.0,15.0,N,,,N,CENTRAL LAB,BLOOD,AUTOMATED,WEEK 4,28,2025-09-16,28
NCSTUDY01,LB,NCSTUDY01-ANIMAL0004,20,PLT,Platelet Count,815.3,10^3/µL,815.3,815.3,10^3/µL,500.0,1300.0,N,,,N,CENTRAL LAB,BLOOD,AUTOMATED,WEEK 4,28,2025-09-16,28
NCSTUDY01,LB,NCSTUDY01-ANIMAL0004,21,ALT,Alanine Aminotransferase,81.1,U/L,81.1,81.1,U/L,20.0,90.0,N,,,N,CENTRAL LAB,BLOOD,AUTOMATED,WEEK 4,28,2025-09-16,28
NCSTUDY01,LB,NCSTUDY01-ANIMAL0004,22,AST,Aspartate Aminotransferase,103.9,U/L,103.9,103.9,U/L,40.0,120.0,N,,,N,CENTRAL LAB,BLOOD,AUTOMATED,WEEK 4,28,2025-09-16,28
NCSTUDY01,LB,NCSTUDY01-ANIMAL0004,23,GLUC,Glucose,93.2,mg/dL,93.2,93.2,mg/dL,70.0,150.0,N,,,N,CENTRAL LAB,BLOOD,AUTOMATED,WEEK 4,28,2025-09-16,28
NCSTUDY01,LB,NCSTUDY01-ANIMAL0004,24,CREAT,Creatinine,0.7,mg/dL,0.7,0.7,mg/dL,0.2,0.6,H,,,N,CENTRAL LAB,BLOOD,AUTOMATED,WEEK 4,28,2025-09-16,28
NCSTUDY01,LB,NCSTUDY01-ANIMAL0005,1,HGB,Hemoglobin,13.6,g/dL,13.6,13.6,g/dL,12.0,18.0,N,,,Y,CENTRAL LAB,BLOOD,AUTOMATED,PRE-DOSE,0,2025-09-27,0
NCSTUDY01,LB,NCSTUDY01-ANIMAL0005,2,RBC,Red Blood Cell Count,8.4,10^6/µL,8.4,8.4,10^6/µL,6.0,10.0,N,,,Y,CENTRAL LAB,BLOOD,AUTOMATED,PRE-DOSE,0,2025-09-27,0
NCSTUDY01,LB,NCSTUDY01-ANIMAL0005,3,WBC,White Blood Cell Count,13.5,10^3/µL,13.5,13.5,10^3/µL,5.0,15.0,N,,,Y,CENTRAL LAB,BLOOD,AUTOMATED,PRE-DOSE,0,2025-09-27,0
NCSTUDY01,LB,NCSTUDY01-ANIMAL0005,4,PLT,Platelet Count,1194.1,10^3/µL,1194.1,1194.1,10^3/µL,500.0,1300.0,N,,,Y,CENTRAL LAB,BLOOD,AUTOMATED,PRE-DOSE,0,2025-09-27,0
NCSTUDY01,LB,NCSTUDY01-ANIMAL0005,5,ALT,Alanine Aminotransferase,85.3,U/L,85.3,85.3,U/L,20.0,90.0,N,,,Y,CENTRAL LAB,BLOOD,AUTOMATED,PRE-DOSE,0,2025-09-27,0
NCSTUDY01,LB,NCSTUDY01-ANIMAL0005,6,AST,Aspartate Aminotransferase,41.6,U/L,41.6,41.6,U/L,40.0,120.0,N,,,Y,CENTRAL LAB,BLOOD,AUTOMATED,PRE-DOSE,0,2025-09-27,0
NCSTUDY01,LB,NCSTUDY01-ANIMAL0005,7,GLUC,Glucose,115.1,mg/dL,115.1,115.1,mg/dL,70.0,150.0,N,,,Y,CENTRAL LAB,BLOOD,AUTOMATED,PRE-DOSE,0,2025-09-27,0
NCSTUDY01,LB,NCSTUDY01-ANIMAL0005,8,CREAT,Creatinine,0.6,mg/dL,0.6,0.6,mg/dL,0.2,0.6,N,,,Y,CENTRAL LAB,BLOOD,AUTOMATED,PRE-DOSE,0,2025-09-27,0
NCSTUDY01,LB,NCSTUDY01-ANIMAL0005,9,HGB,Hemoglobin,14.6,g/dL,14.6,14.6,g/dL,12.0,18.0,N,,,N,CENTRAL LAB,BLOOD,AUTOMATED,WEEK 2,14,2025-10-11,14
NCSTUDY01,LB,NCSTUDY01-ANIMAL0005,10,RBC,Red Blood Cell Count,7.2,10^6/µL,7.2,7.2,10^6/µL,6.0,10.0,N,,,N,CENTRAL LAB,BLOOD,AUTOMATED,WEEK 2,14,2025-10-11,14
NCSTUDY01,LB,NCSTUDY01-ANIMAL0005,11,WBC,White Blood Cell Count,11.3,10^3/µL,11.3,11.3,10^3/µL,5.0,15.0,N,,,N,CENTRAL LAB,BLOOD,AUTOMATED,WEEK 2,14,2025-10-11,14
NCSTUDY01,LB,NCSTUDY01-ANIMAL0005,12,PLT,Platelet Count,1327.0,10^3/µL,1327.0,1327.0,10^3/µL,500.0,1300.0,H,,,N,CENTRAL LAB,BLOOD,AUTOMATED,WEEK 2,14,2025-10-11,14
NCSTUDY01,LB,NCSTUDY01-ANIMAL0005,13,ALT,Alanine Aminotransferase,107.1,U/L,107.1,107.1,U/L,20.0,90.0,H,,,N,CENTRAL LAB,BLOOD,AUTOMATED,WEEK 2,14,2025-10-11,14
NCSTUDY01,LB,NCSTUDY01-ANIMAL0005,14,AST,Aspartate Aminotransferase,38.9,U/L,38.9,38.9,U/L,40.0,120.0,L,,,N,CENTRAL LAB,BLOOD,AUTOMATED,WEEK 2,14,2025-10-11,14
NCSTUDY01,LB,NCSTUDY01-ANIMAL0005,15,GLUC,Glucose,135.0,mg/dL,135.0,135.0,mg/dL,70.0,150.0,N,,,N,CENTRAL LAB,BLOOD,AUTOMATED,WEEK 2,14,2025-10-11,14
NCSTUDY01,LB,NCSTUDY01-ANIMAL0005,16,CREAT,Creatinine,0.7,mg/dL,0.7,0.7,mg/dL,0.2,0.6,H,,,N,CENTRAL LAB,BLOOD,AUTOMATED,WEEK 2,14,2025-10-11,14
NCSTUDY01,LB,NCSTUDY01-ANIMAL0005,17,HGB,Hemoglobin,13.4,g/dL,13.4,13.4,g/dL,12.0,18.0,N,,,N,CENTRAL LAB,BLOOD,AUTOMATED,WEEK 4,28,2025-10-25,28
NCSTUDY01,LB,NCSTUDY01-ANIMAL0005,18,RBC,Red Blood Cell Count,10.6,10^6/µL,10.6,10.6,10^6/µL,6.0,10.0,H,,,N,CENTRAL LAB,BLOOD,AUTOMATED,WEEK 4,28,2025-10-25,28
NCSTUDY01,LB,NCSTUDY01-ANIMAL0005,19,WBC,White Blood Cell Count,15.8,10^3/µL,15.8,15.8,10^3/µL,5.0,15.0,H,,,N,CENTRAL LAB,BLOOD,AUTOMATED,WEEK 4,28,2025-10-25,28
NCSTUDY01,LB,NCSTUDY01-ANIMAL0005,20,PLT,Platelet Count,693.4,10^3/µL,693.4,693.4,10^3/µL,500.0,1300.0,N,,,N,CENTRAL LAB,BLOOD,AUTOMATED,WEEK 4,28,2025-10-25,28
NCSTUDY01,LB,NCSTUDY01-ANIMAL0005,21,ALT,Alanine Aminotransferase,103.2,U/L,103.2,103.2,U/L,20.0,90.0,H,,,N,CENTRAL LAB,BLOOD,AUTOMATED,WEEK 4,28,2025-10-25,28
NCSTUDY01,LB,NCSTUDY01-ANIMAL0005,22,AST,Aspartate Aminotransferase,27.7,U/L,27.7,27.7,U/L,40.0,120.0,L,,,N,CENTRAL LAB,BLOOD,AUTOMATED,WEEK 4,28,2025-10-25,28
NCSTUDY01,LB,NCSTUDY01-ANIMAL0005,23,GLUC,Glucose,163.8,mg/dL,163.8,163.8,mg/dL,70.0,150.0,H,,,N,CENTRAL LAB,BLOOD,AUTOMATED,WEEK 4,28,2025-10-25,28
NCSTUDY01,LB,NCSTUDY01-ANIMAL0005,24,CREAT,Creatinine,0.6,mg/dL,0.6,0.6,mg/dL,0.2,0.6,N,,,N,CENTRAL LAB,BLOOD,AUTOMATED,WEEK 4,28,2025-10-25,28
NCSTUDY01,LB,NCSTUDY01-ANIMAL0006,1,HGB,Hemoglobin,16.2,g/dL,16.2,16.2,g/dL,12.0,18.0,N,,,Y,CENTRAL LAB,BLOOD,AUTOMATED,PRE-DOSE,0,2025-07-17,0
NCSTUDY01,LB,NCSTUDY01-ANIMAL0006,2,RBC,Red Blood Cell Count,9.5,10^6/µL,9.5,9.5,10^6/µL,6.0,10.0,N,,,Y,CENTRAL LAB,BLOOD,AUTOMATED,PRE-DOSE,0,2025-07-17,0
NCSTUDY01,LB,NCSTUDY01-ANIMAL0006,3,WBC,White Blood Cell Count,13.7,10^3/µL,13.7,13.7,10^3/µL,5.0,15.0,N,,,Y,CENTRAL LAB,BLOOD,AUTOMATED,PRE-DOSE,0,2025-07-17,0
NCSTUDY01,LB,NCSTUDY01-ANIMAL0006,4,PLT,Platelet Count,766.3,10^3/µL,766.3,766.3,10^3/µL,500.0,1300.0,N,,,Y,CENTRAL LAB,BLOOD,AUTOMATED,PRE-DOSE,0,2025-07-17,0
NCSTUDY01,LB,NCSTUDY01-ANIMAL0006,5,ALT,Alanine Aminotransferase,35.2,U/L,35.2,35.2,U/L,20.0,90.0,N,,,Y,CENTRAL LAB,BLOOD,AUTOMATED,PRE-DOSE,0,2025-07-17,0
NCSTUDY01,LB,NCSTUDY01-ANIMAL0006,6,AST,Aspartate Aminotransferase,83.8,U/L,83.8,83.8,U/L,40.0,120.0,N,,,Y,CENTRAL LAB,BLOOD,AUTOMATED,PRE-DOSE,0,2025-07-17,0
NCSTUDY01,LB,NCSTUDY01-ANIMAL0006,7,GLUC,Glucose,118.7,mg/dL,118.7,118.7,mg/dL,70.0,150.0,N,,,Y,CENTRAL LAB,BLOOD,AUTOMATED,PRE-DOSE,0,2025-07-17,0
NCSTUDY01,LB,NCSTUDY01-ANIMAL0006,8,CREAT,Creatinine,0.5,mg/dL,0.5,0.5,mg/dL,0.2,0.6,N,,,Y,CENTRAL LAB,BLOOD,AUTOMATED,PRE-DOSE,0,2025-07-17,0
NCSTUDY01,LB,NCSTUDY01-ANIMAL0006,9,HGB,Hemoglobin,15.3,g/dL,15.3,15.3,g/dL,12.0,18.0,N,,,N,CENTRAL LAB,BLOOD,AUTOMATED,WEEK 2,14,2025-07-31,14
NCSTUDY01,LB,NCSTUDY01-ANIMAL0006,10,RBC,Red Blood Cell Count,9.6,10^6/µL,9.6,9.6,10^6/µL,6.0,10.0,N,,,N,CENTRAL LAB,BLOOD,AUTOMATED,WEEK 2,14,2025-07-31,14
NCSTUDY01,LB,NCSTUDY01-ANIMAL0006,11,WBC,White Blood Cell Count,14.2,10^3/µL,14.2,14.2,10^3/µL,5.0,15.0,N,,,N,CENTRAL LAB,BLOOD,AUTOMATED,WEEK 2,14,2025-07-31,14
NCSTUDY01,LB,NCSTUDY01-ANIMAL0006,12,PLT,Platelet Count,762.6,10^3/µL,762.6,762.6,10^3/µL,500.0,1300.0,N,,,N,CENTRAL LAB,BLOOD,AUTOMATED,WEEK 2,14,2025-07-31,14
NCSTUDY01,LB,NCSTUDY01-ANIMAL0006,13,ALT,Alanine Aminotransferase,31.9,U/L,31.9,31.9,U/L,20.0,90.0,N,,,N,CENTRAL LAB,BLOOD,AUTOMATED,WEEK 2,14,2025-07-31,14
NCSTUDY01,LB,NCSTUDY01-ANIMAL0006,14,AST,Aspartate Aminotransferase,71.8,U/L,71.8,71.8,U/L,40.0,120.0,N,,,N,CENTRAL LAB,BLOOD,AUTOMATED,WEEK 2,14,2025-07-31,14
NCSTUDY01,LB,NCSTUDY01-ANIMAL0006,15,GLUC,Glucose,141.0,mg/dL,141.0,141.0,mg/dL,70.0,150.0,N,,,N,CENTRAL LAB,BLOOD,AUTOMATED,WEEK 2,14,2025-07-31,14
NCSTUDY01,LB,NCSTUDY01-ANIMAL0006,16,CREAT,Creatinine,0.4,mg/dL,0.4,0.4,mg/dL,0.2,0.6,N,,,N,CENTRAL LAB,BLOOD,AUTOMATED,WEEK 2,14,2025-07-31,14
NCSTUDY01,LB,NCSTUDY01-ANIMAL0006,17,HGB,Hemoglobin,14.1,g/dL,14.1,14.1,g/dL,12.0,18.0,N,,,N,CENTRAL LAB,BLOOD,AUTOMATED,WEEK 4,28,2025-08-14,28
NCSTUDY01,LB,NCSTUDY01-ANIMAL0006,18,RBC,Red Blood Cell Count,9.6,10^6/µL,9.6,9.6,10^6/µL,6.0,10.0,N,,,N,CENTRAL LAB,BLOOD,AUTOMATED,WEEK 4,28,2025-08-14,28
NCSTUDY01,LB,NCSTUDY01-ANIMAL0006,19,WBC,White Blood Cell Count,13.9,10^3/µL,13.9,13.9,10^3/µL,5.0,15.0,N,,,N,CENTRAL LAB,BLOOD,AUTOMATED,WEEK 4,28,2025-08-14,28
NCSTUDY01,LB,NCSTUDY01-ANIMAL0006,20,PLT,Platelet Count,763.9,10^3/µL,763.9,763.9,10^3/µL,500.0,1300.0,N,,,N,CENTRAL LAB,BLOOD,AUTOMATED,WEEK 4,28,2025-08-14,28
NCSTUDY01,LB,NCSTUDY01-ANIMAL0006,21,ALT,Alanine Aminotransferase,31.4,U/L,31.4,31.4,U/L,20.0,90.0,N,,,N,CENTRAL LAB,BLOOD,AUTOMATED,WEEK 4,28,2025-08-14,28
NCSTUDY01,LB,NCSTUDY01-ANIMAL0006,22,AST,Aspartate Aminotransferase,110.0,U/L,110.0,110.0,U/L,40.0,120.0,N,,,N,CENTRAL LAB,BLOOD,AUTOMATED,WEEK 4,28,2025-08-14,28
NCSTUDY01,LB,NCSTUDY01-ANIMAL0006,23,GLUC,Glucose,77.1,mg/dL,77.1,77.1,mg/dL,70.0,150.0,N,,,N,CENTRAL LAB,BLOOD,AUTOMATED,WEEK 4,28,2025-08-14,28
NCSTUDY01,LB,NCSTUDY01-ANIMAL0006,24,CREAT,Creatinine,0.4,mg/dL,0.4,0.4,mg/dL,0.2,0.6,N,,,N,CENTRAL LAB,BLOOD,AUTOMATED,WEEK 4,28,2025-08-14,28
NCSTUDY01,LB,NCSTUDY01-ANIMAL0007,1,HGB,Hemoglobin,13.9,g/dL,13.9,13.9,g/dL,12.0,18.0,N,,,Y,CENTRAL LAB,BLOOD,AUTOMATED,PRE-DOSE,0,2025-08-08,0
NCSTUDY01,LB,NCSTUDY01-ANIMAL0007,2,RBC,Red Blood Cell Count,6.4,10^6/µL,6.4,6.4,10^6/µL,6.0,10.0,N,,,Y,CENTRAL LAB,BLOOD,AUTOMATED,PRE-DOSE,0,2025-08-08,0
NCSTUDY01,LB,NCSTUDY01-ANIMAL0007,3,WBC,White Blood Cell Count,11.0,10^3/µL,11.0,11.0,10^3/µL,5.0,15.0,N,,,Y,CENTRAL LAB,BLOOD,AUTOMATED,PRE-DOSE,0,2025-08-08,0
NCSTUDY01,LB,NCSTUDY01-ANIMAL0007,4,PLT,Platelet Count,1145.6,10^3/µL,1145.6,1145.6,10^3/µL,500.0,1300.0,N,,,Y,CENTRAL LAB,BLOOD,AUTOMATED,PRE-DOSE,0,2025-08-08,0
NCSTUDY01,LB,NCSTUDY01-ANIMAL0007,5,ALT,Alanine Aminotransferase,47.5,U/L,47.5,47.5,U/L,20.0,90.0,N,,,Y,CENTRAL LAB,BLOOD,AUTOMATED,PRE-DOSE,0,2025-08-08,0
NCSTUDY01,LB,NCSTUDY01-ANIMAL0007,6,AST,Aspartate Aminotransferase,74.0,U/L,74.0,74.0,U/L,40.0,120.0,N,,,Y,CENTRAL LAB,BLOOD,AUTOMATED,PRE-DOSE,0,2025-08-08,0
NCSTUDY01,LB,NCSTUDY01-ANIMAL0007,7,GLUC,Glucose,96.1,mg/dL,96.1,96.1,mg/dL,70.0,150.0,N,,,Y,CENTRAL LAB,BLOOD,AUTOMATED,PRE-DOSE,0,2025-08-08,0
NCSTUDY01,LB,NCSTUDY01-ANIMAL0007,8,CREAT,Creatinine,0.5,mg/dL,0.5,0.5,mg/dL,0.2,0.6,N,,,Y,CENTRAL LAB,BLOOD,AUTOMATED,PRE-DOSE,0,2025-08-08,0
NCSTUDY01,LB,NCSTUDY01-ANIMAL0007,9,HGB,Hemoglobin,13.3,g/dL,13.3,13.3,g/dL,12.0,18.0,N,,,N,CENTRAL LAB,BLOOD,AUTOMATED,WEEK 2,14,2025-08-22,14
NCSTUDY01,LB,NCSTUDY01-ANIMAL0007,10,RBC,Red Blood Cell Count,6.6,10^6/µL,6.6,6.6,10^6/µL,6.0,10.0,N,,,N,CENTRAL LAB,BLOOD,AUTOMATED,WEEK 2,14,2025-08-22,14
NCSTUDY01,LB,NCSTUDY01-ANIMAL0007,11,WBC,White Blood Cell Count,11.7,10^3/µL,11.7,11.7,10^3/µL,5.0,15.0,N,,,N,CENTRAL LAB,BLOOD,AUTOMATED,WEEK 2,14,2025-08-22,14
NCSTUDY01,LB,NCSTUDY01-ANIMAL0007,12,PLT,Platelet Count,1206.2,10^3/µL,1206.2,1206.2,10^3/µL,500.0,1300.0,N,,,N,CENTRAL LAB,BLOOD,AUTOMATED,WEEK 2,14,2025-08-22,14
NCSTUDY01,LB,NCSTUDY01-ANIMAL0007,13,ALT,Alanine Aminotransferase,49.0,U/L,49.0,49.0,U/L,20.0,90.0,N,,,N,CENTRAL LAB,BLOOD,AUTOMATED,WEEK 2,14,2025-08-22,14
NCSTUDY01,LB,NCSTUDY01-ANIMAL0007,14,AST,Aspartate Aminotransferase,74.0,U/L,74.0,74.0,U/L,40.0,120.0,N,,,N,CENTRAL LAB,BLOOD,AUTOMATED,WEEK 2,14,2025-08-22,14
NCSTUDY01,LB,NCSTUDY01-ANIMAL0007,15,GLUC,Glucose,89.9,mg/dL,89.9,89.9,mg/dL,70.0,150.0,N,,,N,CENTRAL LAB,BLOOD,AUTOMATED,WEEK 2,14,2025-08-22,14
NCSTUDY01,LB,NCSTUDY01-ANIMAL0007,16,CREAT,Creatinine,0.5,mg/dL,0.5,0.5,mg/dL,0.2,0.6,N,,,N,CENTRAL LAB,BLOOD,AUTOMATED,WEEK 2,14,2025-08-22,14
NCSTUDY01,LB,NCSTUDY01-ANIMAL0007,17,HGB,Hemoglobin,13.5,g/dL,13.5,13.5,g/dL,12.0,18.0,N,,,N,CENTRAL LAB,BLOOD,AUTOMATED,WEEK 4,28,2025-09-05,28
NCSTUDY01,LB,NCSTUDY01-ANIMAL0007,18,RBC,Red Blood Cell Count,6.6,10^6/µL,6.6,6.6,10^6/µL,6.0,10.0,N,,,N,CENTRAL LAB,BLOOD,AUTOMATED,WEEK 4,28,2025-09-05,28
NCSTUDY01,LB,NCSTUDY01-ANIMAL0007,19,WBC,White Blood Cell Count,11.2,10^3/µL,11.2,11.2,10^3/µL,5.0,15.0,N,,,N,CENTRAL LAB,BLOOD,AUTOMATED,WEEK 4,28,2025-09-05,28
NCSTUDY01,LB,NCSTUDY01-ANIMAL0007,20,PLT,Platelet Count,1144.3,10^3/µL,1144.3,1144.3,10^3/µL,500.0,1300.0,N,,,N,CENTRAL LAB,BLOOD,AUTOMATED,WEEK 4,28,2025-09-05,28
NCSTUDY01,LB,NCSTUDY01-ANIMAL0007,21,ALT,Alanine Aminotransferase,46.7,U/L,46.7,46.7,U/L,20.0,90.0,N,,,N,CENTRAL LAB,BLOOD,AUTOMATED,WEEK 4,28,2025-09-05,28
NCSTUDY01,LB,NCSTUDY01-ANIMAL0007,22,AST,Aspartate Aminotransferase,71.2,U/L,71.2,71.2,U/L,40.0,120.0,N,,,N,CENTRAL LAB,BLOOD,AUTOMATED,WEEK 4,28,2025-09-05,28
NCSTUDY01,LB,NCSTUDY01-ANIMAL0007,23,GLUC,Glucose,93.6,mg/dL,93.6,93.6,mg/dL,70.0,150.0,N,,,N,CENTRAL LAB,BLOOD,AUTOMATED,WEEK 4,28,2025-09-05,28
NCSTUDY01,LB,NCSTUDY01-ANIMAL0007,24,CREAT,Creatinine,0.5,mg/dL,0.5,0.5,mg/dL,0.2,0.6,N,,,N,CENTRAL LAB,BLOOD,AUTOMATED,WEEK 4,28,2025-09-05,28
NCSTUDY01,LB,NCSTUDY01-ANIMAL0008,1,HGB,Hemoglobin,13.7,g/dL,13.7,13.7,g/dL,12.0,18.0,N,,,Y,CENTRAL LAB,BLOOD,AUTOMATED,PRE-DOSE,0,2025-08-07,0
NCSTUDY01,LB,NCSTUDY01-ANIMAL0008,2,RBC,Red Blood Cell Count,9.6,10^6/µL,9.6,9.6,10^6/µL,6.0,10.0,N,,,Y,CENTRAL LAB,BLOOD,AUTOMATED,PRE-DOSE,0,2025-08-07,0
NCSTUDY01,LB,NCSTUDY01-ANIMAL0008,3,WBC,White Blood Cell Count,5.6,10^3/µL,5.6,5.6,10^3/µL,5.0,15.0,N,,,Y,CENTRAL LAB,BLOOD,AUTOMATED,PRE-DOSE,0,2025-08-07,0
NCSTUDY01,LB,NCSTUDY01-ANIMAL0008,4,PLT,Platelet Count,736.0,10^3/µL,736.0,736.0,10^3/µL,500.0,1300.0,N,,,Y,CENTRAL LAB,BLOOD,AUTOMATED,PRE-DOSE,0,2025-08-07,0
NCSTUDY01,LB,NCSTUDY01-ANIMAL0008,5,ALT,Alanine Aminotransferase,69.3,U/L,69.3,69.3,U/L,20.0,90.0,N,,,Y,CENTRAL LAB,BLOOD,AUTOMATED,PRE-DOSE,0,2025-08-07,0
NCSTUDY01,LB,NCSTUDY01-ANIMAL0008,6,AST,Aspartate Aminotransferase,86.5,U/L,86.5,86.5,U/L,40.0,120.0,N,,,Y,CENTRAL LAB,BLOOD,AUTOMATED,PRE-DOSE,0,2025-08-07,0
NCSTUDY01,LB,NCSTUDY01-ANIMAL0008,7,GLUC,Glucose,142.5,mg/dL,142.5,142.5,mg/dL,70.0,150.0,N,,,Y,CENTRAL LAB,BLOOD,AUTOMATED,PRE-DOSE,0,2025-08-07,0
NCSTUDY01,LB,NCSTUDY01-ANIMAL0008,8,CREAT,Creatinine,0.5,mg/dL,0.5,0.5,mg/dL,0.2,0.6,N,,,Y,CENTRAL LAB,BLOOD,AUTOMATED,PRE-DOSE,0,2025-08-07,0
NCSTUDY01,LB,NCSTUDY01-ANIMAL0008,9,HGB,Hemoglobin,13.1,g/dL,13.1,13.1,g/dL,12.0,18.0,N,,,N,CENTRAL LAB,BLOOD,AUTOMATED,WEEK 2,14,2025-08-21,14
NCSTUDY01,LB,NCSTUDY01-ANIMAL0008,10,RBC,Red Blood Cell Count,9.6,10^6/µL,9.6,9.6,10^6/µL,6.0,10.0,N,,,N,CENTRAL LAB,BLOOD,AUTOMATED,WEEK 2,14,2025-08-21,14
NCSTUDY01,LB,NCSTUDY01-ANIMAL0008,11,WBC,White Blood Cell Count,5.1,10^3/µL,5.1,5.1,10^3/µL,5.0,15.0,N,,,N,CENTRAL LAB,BLOOD,AUTOMATED,WEEK 2,14,2025-08-21,14
NCSTUDY01,LB,NCSTUDY01-ANIMAL0008,12,PLT,Platelet Count,773.2,10^3/µL,773.2,773.2,10^3/µL,500.0,1300.0,N,,,N,CENTRAL LAB,BLOOD,AUTOMATED,WEEK 2,14,2025-08-21,14
NCSTUDY01,LB,NCSTUDY01-ANIMAL0008,13,ALT,Alanine Aminotransferase,65.7,U/L,65.7,65.7,U/L,20.0,90.0,N,,,N,CENTRAL LAB,BLOOD,AUTOMATED,WEEK 2,14,2025-08-21,14
NCSTUDY01,LB,NCSTUDY01-ANIMAL0008,14,AST,Aspartate Aminotransferase,92.8,U/L,92.8,92.8,U/L,40.0,120.0,N,,,N,CENTRAL LAB,BLOOD,AUTOMATED,WEEK 2,14,2025-08-21,14
NCSTUDY01,LB,NCSTUDY01-ANIMAL0008,15,GLUC,Glucose,144.4,mg/dL,144.4,144.4,mg/dL,70.0,150.0,N,,,N,CENTRAL LAB,BLOOD,AUTOMATED,WEEK 2,14,2025-08-21,14
NCSTUDY01,LB,NCSTUDY01-ANIMAL0008,16,CREAT,Creatinine,0.5,mg/dL,0.5,0.5,mg/dL,0.2,0.6,N,,,N,CENTRAL LAB,BLOOD,AUTOMATED,WEEK 2,14,2025-08-21,14
NCSTUDY01,LB,NCSTUDY01-ANIMAL0008,17,HGB,Hemoglobin,14.0,g/dL,14.0,14.0,g/dL,12.0,18.0,N,,,N,CENTRAL LAB,BLOOD,AUTOMATED,WEEK 4,28,2025-09-04,28
NCSTUDY01,LB,NCSTUDY01-ANIMAL0008,18,RBC,Red Blood Cell Count,9.8,10^6/µL,9.8,9.8,10^6/µL,6.0,10.0,N,,,N,CENTRAL LAB,BLOOD,AUTOMATED,WEEK 4,28,2025-09-04,28
NCSTUDY01,LB,NCSTUDY01-ANIMAL0008,19,WBC,White Blood Cell Count,5.6,10^3/µL,5.6,5.6,10^3/µL,5.0,15.0,N,,,N,CENTRAL LAB,BLOOD,AUTOMATED,WEEK 4,28,2025-09-04,28
NCSTUDY01,LB,NCSTUDY01-ANIMAL0008,20,PLT,Platelet Count,744.1,10^3/µL,744.1,744.1,10^3/µL,500.0,1300.0,N,,,N,CENTRAL LAB,BLOOD,AUTOMATED,WEEK 4,28,2025-09-04,28
NCSTUDY01,LB,NCSTUDY01-ANIMAL0008,21,ALT,Alanine Aminotransferase,65.8,U/L,65.8,65.8,U/L,20.0,90.0,N,,,N,CENTRAL LAB,BLOOD,AUTOMATED,WEEK 4,28,2025-09-04,28
NCSTUDY01,LB,NCSTUDY01-ANIMAL0008,22,AST,Aspartate Aminotransferase,91.3,U/L,91.3,91.3,U/L,40.0,120.0,N,,,N,CENTRAL LAB,BLOOD,AUTOMATED,WEEK 4,28,2025-09-04,28
NCSTUDY01,LB,NCSTUDY01-ANIMAL0008,23,GLUC,Glucose,146.8,mg/dL,146.8,146.8,mg/dL,70.0,150.0,N,,,N,CENTRAL LAB,BLOOD,AUTOMATED,WEEK 4,28,2025-09-04,28
NCSTUDY01,LB,NCSTUDY01-ANIMAL0008,24,CREAT,Creatinine,0.5,mg/dL,0.5,0.5,mg/dL,0.2,0.6,N,,,N,CENTRAL LAB,BLOOD,AUTOMATED,WEEK 4,28,2025-09-04,28
NCSTUDY01,LB,NCSTUDY01-ANIMAL0009,1,HGB,Hemoglobin,15.8,g/dL,15.8,15.8,g/dL,12.0,18.0,N,,,Y,CENTRAL LAB,BLOOD,AUTOMATED,PRE-DOSE,0,2025-06-23,0
NCSTUDY01,LB,NCSTUDY01-ANIMAL0009,2,RBC,Red Blood Cell Count,7.8,10^6/µL,7.8,7.8,10^6/µL,6.0,10.0,N,,,Y,CENTRAL LAB,BLOOD,AUTOMATED,PRE-DOSE,0,2025-06-23,0
NCSTUDY01,LB,NCSTUDY01-ANIMAL0009,3,WBC,White Blood Cell Count,13.5,10^3/µL,13.5,13.5,10^3/µL,5.0,15.0,N,,,Y,CENTRAL LAB,BLOOD,AUTOMATED,PRE-DOSE,0,2025-06-23,0
NCSTUDY01,LB,NCSTUDY01-ANIMAL0009,4,PLT,Platelet Count,1303.7,10^3/µL,1303.7,1303.7,10^3/µL,500.0,1300.0,H,,,Y,CENTRAL LAB,BLOOD,AUTOMATED,PRE-DOSE,0,2025-06-23,0
NCSTUDY01,LB,NCSTUDY01-ANIMAL0009,5,ALT,Alanine Aminotransferase,73.3,U/L,73.3,73.3,U/L,20.0,90.0,N,,,Y,CENTRAL LAB,BLOOD,AUTOMATED,PRE-DOSE,0,2025-06-23,0
NCSTUDY01,LB,NCSTUDY01-ANIMAL0009,6,AST,Aspartate Aminotransferase,98.5,U/L,98.5,98.5,U/L,40.0,120.0,N,,,Y,CENTRAL LAB,BLOOD,AUTOMATED,PRE-DOSE,0,2025-06-23,0
NCSTUDY01,LB,NCSTUDY01-ANIMAL0009,7,GLUC,Glucose,119.4,mg/dL,119.4,119.4,mg/dL,70.0,150.0,N,,,Y,CENTRAL LAB,BLOOD,AUTOMATED,PRE-DOSE,0,2025-06-23,0
NCSTUDY01,LB,NCSTUDY01-ANIMAL0009,8,CREAT,Creatinine,0.2,mg/dL,0.2,0.2,mg/dL,0.2,0.6,N,,,Y,CENTRAL LAB,BLOOD,AUTOMATED,PRE-DOSE,0,2025-06-23,0
NCSTUDY01,LB,NCSTUDY01-ANIMAL0009,9,HGB,Hemoglobin,14.6,g/dL,14.6,14.6,g/dL,12.0,18.0,N,,,N,CENTRAL LAB,BLOOD,AUTOMATED,WEEK 2,14,2025-07-07,14
NCSTUDY01,LB,NCSTUDY01-ANIMAL0009,10,RBC,Red Blood Cell Count,7.8,10^6/µL,7.8,7.8,10^6/µL,6.0,10.0,N,,,N,CENTRAL LAB,BLOOD,AUTOMATED,WEEK 2,14,2025-07-07,14
NCSTUDY01,LB,NCSTUDY01-ANIMAL0009,11,WBC,White Blood Cell Count,12.7,10^3/µL,12.7,12.7,10^3/µL,5.0,15.0,N,,,N,CENTRAL LAB,BLOOD,AUTOMATED,WEEK 2,14,2025-07-07,14
NCSTUDY01,LB,NCSTUDY01-ANIMAL0009,12,PLT,Platelet Count,1278.2,10^3/µL,1278.2,1278.2,10^3/µL,500.0,1300.0,N,,,N,CENTRAL LAB,BLOOD,AUTOMATED,WEEK 2,14,2025-07-07,14
NCSTUDY01,LB,NCSTUDY01-ANIMAL0009,13,ALT,Alanine Aminotransferase,64.5,U/L,64.5,64.5,U/L,20.0,90.0,N,,,N,CENTRAL LAB,BLOOD,AUTOMATED,WEEK 2,14,2025-07-07,14
NCSTUDY01,LB,NCSTUDY01-ANIMAL0009,14,AST,Aspartate Aminotransferase,99.7,U/L,99.7,99.7,U/L,40.0,120.0,N,,,N,CENTRAL LAB,BLOOD,AUTOMATED,WEEK 2,14,2025-07-07,14
NCSTUDY01,LB,NCSTUDY01-ANIMAL0009,15,GLUC,Glucose,130.8,mg/dL,130.8,130.8,mg/dL,70.0,150.0,N,,,N,CENTRAL LAB,BLOOD,AUTOMATED,WEEK 2,14,2025-07-07,14
NCSTUDY01,LB,NCSTUDY01-ANIMAL0009,16,CREAT,Creatinine,0.2,mg/dL,0.2,0.2,mg/dL,0.2,0.6,L,,,N,CENTRAL LAB,BLOOD,AUTOMATED,WEEK 2,14,2025-07-07,14
NCSTUDY01,LB,NCSTUDY01-ANIMAL0009,17,HGB,Hemoglobin,16.4,g/dL,16.4,16.4,g/dL,12.0,18.0,N,,,N,CENTRAL LAB,BLOOD,AUTOMATED,WEEK 4,28,2025-07-21,28
NCSTUDY01,LB,NCSTUDY01-ANIMAL0009,18,RBC,Red Blood Cell Count,8.1,10^6/µL,8.1,8.1,10^6/µL,6.0,10.0,N,,,N,CENTRAL LAB,BLOOD,AUTOMATED,WEEK 4,28,2025-07-21,28
NCSTUDY01,LB,NCSTUDY01-ANIMAL0009,19,WBC,White Blood Cell Count,14.2,10^3/µL,14.2,14.2,10^3/µL,5.0,15.0,N,,,N,CENTRAL LAB,BLOOD,AUTOMATED,WEEK 4,28,2025-07-21,28
NCSTUDY01,LB,NCSTUDY01-ANIMAL0009,20,PLT,Platelet Count,1497.2,10^3/µL,1497.2,1497.2,10^3/µL,500.0,1300.0,H,,,N,CENTRAL LAB,BLOOD,AUTOMATED,WEEK 4,28,2025-07-21,28
NCSTUDY01,LB,NCSTUDY01-ANIMAL0009,21,ALT,Alanine Aminotransferase,59.3,U/L,59.3,59.3,U/L,20.0,90.0,N,,,N,CENTRAL LAB,BLOOD,AUTOMATED,WEEK 4,28,2025-07-21,28
NCSTUDY01,LB,NCSTUDY01-ANIMAL0009,22,AST,Aspartate Aminotransferase,101.8,U/L,101.8,101.8,U/L,40.0,120.0,N,,,N,CENTRAL LAB,BLOOD,AUTOMATED,WEEK 4,28,2025-07-21,28
NCSTUDY01,LB,NCSTUDY01-ANIMAL0009,23,GLUC,Glucose,116.5,mg/dL,116.5,116.5,mg/dL,70.0,150.0,N,,,N,CENTRAL LAB,BLOOD,AUTOMATED,WEEK 4,28,2025-07-21,28
NCSTUDY01,LB,NCSTUDY01-ANIMAL0009,24,CREAT,Creatinine,0.2,mg/dL,0.2,0.2,mg/dL,0.2,0.6,N,,,N,CENTRAL LAB,BLOOD,AUTOMATED,WEEK 4,28,2025-07-21,28
NCSTUDY01,LB,NCSTUDY01-ANIMAL0010,1,HGB,Hemoglobin,12.8,g/dL,12.8,12.8,g/dL,12.0,18.0,N,,,Y,CENTRAL LAB,BLOOD,AUTOMATED,PRE-DOSE,0,2025-08-02,0
NCSTUDY01,LB,NCSTUDY01-ANIMAL0010,2,RBC,Red Blood Cell Count,6.3,10^6/µL,6.3,6.3,10^6/µL,6.0,10.0,N,,,Y,CENTRAL LAB,BLOOD,AUTOMATED,PRE-DOSE,0,2025-08-02,0
NCSTUDY01,LB,NCSTUDY01-ANIMAL0010,3,WBC,White Blood Cell Count,8.2,10^3/µL,8.2,8.2,10^3/µL,5.0,15.0,N,,,Y,CENTRAL LAB,BLOOD,AUTOMATED,PRE-DOSE,0,2025-08-02,0
NCSTUDY01,LB,NCSTUDY01-ANIMAL0010,4,PLT,Platelet Count,918.0,10^3/µL,918.0,918.0,10^3/µL,500.0,1300.0,N,,,Y,CENTRAL LAB,BLOOD,AUTOMATED,PRE-DOSE,0,2025-08-02,0
NCSTUDY01,LB,NCSTUDY01-ANIMAL0010,5,ALT,Alanine Aminotransferase,74.2,U/L,74.2,74.2,U/L,20.0,90.0,N,,,Y,CENTRAL LAB,BLOOD,AUTOMATED,PRE-DOSE,0,2025-08-02,0
NCSTUDY01,LB,NCSTUDY01-ANIMAL0010,6,AST,Aspartate Aminotransferase,47.8,U/L,47.8,47.8,U/L,40.0,120.0,N,,,Y,CENTRAL LAB,BLOOD,AUTOMATED,PRE-DOSE,0,2025-08-02,0
NCSTUDY01,LB,NCSTUDY01-ANIMAL0010,7,GLUC,Glucose,98.5,mg/dL,98.5,98.5,mg/dL,70.0,150.0,N,,,Y,CENTRAL LAB,BLOOD,AUTOMATED,PRE-DOSE,0,2025-08-02,0
NCSTUDY01,LB,NCSTUDY01-ANIMAL0010,8,CREAT,Creatinine,0.5,mg/dL,0.5,0.5,mg/dL,0.2,0.6,N,,,Y,CENTRAL LAB,BLOOD,AUTOMATED,PRE-DOSE,0,2025-08-02,0
NCSTUDY01,LB,NCSTUDY01-ANIMAL0010,9,HGB,Hemoglobin,12.8,g/dL,12.8,12.8,g/dL,12.0,18.0,N,,,N,CENTRAL LAB,BLOOD,AUTOMATED,WEEK 2,14,2025-08-16,14
NCSTUDY01,LB,NCSTUDY01-ANIMAL0010,10,RBC,Red Blood Cell Count,5.0,10^6/µL,5.0,5.0,10^6/µL,6.0,10.0,L,,,N,CENTRAL LAB,BLOOD,AUTOMATED,WEEK 2,14,2025-08-16,14
NCSTUDY01,LB,NCSTUDY01-ANIMAL0010,11,WBC,White Blood Cell Count,6.6,10^3/µL,6.6,6.6,10^3/µL,5.0,15.0,N,,,N,CENTRAL LAB,BLOOD,AUTOMATED,WEEK 2,14,2025-08-16,14
NCSTUDY01,LB,NCSTUDY01-ANIMAL0010,12,PLT,Platelet Count,739.2,10^3/µL,739.2,739.2,10^3/µL,500.0,1300.0,N,,,N,CENTRAL LAB,BLOOD,AUTOMATED,WEEK 2,14,2025-08-16,14
NCSTUDY01,LB,NCSTUDY01-ANIMAL0010,13,ALT,Alanine Aminotransferase,88.4,U/L,88.4,88.4,U/L,20.0,90.0,N,,,N,CENTRAL LAB,BLOOD,AUTOMATED,WEEK 2,14,2025-08-16,14
NCSTUDY01,LB,NCSTUDY01-ANIMAL0010,14,AST,Aspartate Aminotransferase,40.7,U/L,40.7,40.7,U/L,40.0,120.0,N,,,N,CENTRAL LAB,BLOOD,AUTOMATED,WEEK 2,14,2025-08-16,14
NCSTUDY01,LB,NCSTUDY01-ANIMAL0010,15,GLUC,Glucose,81.8,mg/dL,81.8,81.8,mg/dL,70.0,150.0,N,,,N,CENTRAL LAB,BLOOD,AUTOMATED,WEEK 2,14,2025-08-16,14
NCSTUDY01,LB,NCSTUDY01-ANIMAL0010,16,CREAT,Creatinine,0.6,mg/dL,0.6,0.6,mg/dL,0.2,0.6,N,,,N,CENTRAL LAB,BLOOD,AUTOMATED,WEEK 2,14,2025-08-16,14
NCSTUDY01,LB,NCSTUDY01-ANIMAL0010,17,HGB,Hemoglobin,10.7,g/dL,10.7,10.7,g/dL,12.0,18.0,L,,,N,CENTRAL LAB,BLOOD,AUTOMATED,WEEK 4,28,2025-08-30,28
NCSTUDY01,LB,NCSTUDY01-ANIMAL0010,18,RBC,Red Blood Cell Count,3.6,10^6/µL,3.6,3.6,10^6/µL,6.0,10.0,L,,,N,CENTRAL LAB,BLOOD,AUTOMATED,WEEK 4,28,2025-08-30,28
NCSTUDY01,LB,NCSTUDY01-ANIMAL0010,19,WBC,White Blood Cell Count,8.8,10^3/µL,8.8,8.8,10^3/µL,5.0,15.0,N,,,N,CENTRAL LAB,BLOOD,AUTOMATED,WEEK 4,28,2025-08-30,28
NCSTUDY01,LB,NCSTUDY01-ANIMAL0010,20,PLT,Platelet Count,789.2,10^3/µL,789.2,789.2,10^3/µL,500.0,1300.0,N,,,N,CENTRAL LAB,BLOOD,AUTOMATED,WEEK 4,28,2025-08-30,28
NCSTUDY01,LB,NCSTUDY01-ANIMAL0010,21,ALT,Alanine Aminotransferase,65.5,U/L,65.5,65.5,U/L,20.0,90.0,N,,,N,CENTRAL LAB,BLOOD,AUTOMATED,WEEK 4,28,2025-08-30,28
NCSTUDY01,LB,NCSTUDY01-ANIMAL0010,22,AST,Aspartate Aminotransferase,27.5,U/L,27.5,27.5,U/L,40.0,120.0,L,,,N,CENTRAL LAB,BLOOD,AUTOMATED,WEEK 4,28,2025-08-30,28
NCSTUDY01,LB,NCSTUDY01-ANIMAL0010,23,GLUC,Glucose,128.2,mg/dL,128.2,128.2,mg/dL,70.0,150.0,N,,,N,CENTRAL LAB,BLOOD,AUTOMATED,WEEK 4,28,2025-08-30,28
NCSTUDY01,LB,NCSTUDY01-ANIMAL0010,24,CREAT,Creatinine,0.4,mg/dL,0.4,0.4,mg/dL,0.2,0.6,N,,,N,CENTRAL LAB,BLOOD,AUTOMATED,WEEK 4,28,2025-08-30,28
NCSTUDY01,LB,NCSTUDY01-ANIMAL0011,1,HGB,Hemoglobin,16.6,g/dL,16.6,16.6,g/dL,12.0,18.0,N,,,Y,CENTRAL LAB,BLOOD,AUTOMATED,PRE-DOSE,0,2025-08-13,0
NCSTUDY01,LB,NCSTUDY01-ANIMAL0011,2,RBC,Red Blood Cell Count,6.8,10^6/µL,6.8,6.8,10^6/µL,6.0,10.0,N,,,Y,CENTRAL LAB,BLOOD,AUTOMATED,PRE-DOSE,0,2025-08-13,0
NCSTUDY01,LB,NCSTUDY01-ANIMAL0011,3,WBC,White Blood Cell Count,9.8,10^3/µL,9.8,9.8,10^3/µL,5.0,15.0,N,,,Y,CENTRAL LAB,BLOOD,AUTOMATED,PRE-DOSE,0,2025-08-13,0
NCSTUDY01,LB,NCSTUDY01-ANIMAL0011,4,PLT,Platelet Count,523.2,10^3/µL,523.2,523.2,10^3/µL,500.0,1300.0,N,,,Y,CENTRAL LAB,BLOOD,AUTOMATED,PRE-DOSE,0,2025-08-13,0
NCSTUDY01,LB,NCSTUDY01-ANIMAL0011,5,ALT,Alanine Aminotransferase,57.1,U/L,57.1,57.1,U/L,20.0,90.0,N,,,Y,CENTRAL LAB,BLOOD,AUTOMATED,PRE-DOSE,0,2025-08-13,0
NCSTUDY01,LB,NCSTUDY01-ANIMAL0011,6,AST,Aspartate Aminotransferase,103.7,U/L,103.7,103.7,U/L,40.0,120.0,N,,,Y,CENTRAL LAB,BLOOD,AUTOMATED,PRE-DOSE,0,2025-08-13,0
NCSTUDY01,LB,NCSTUDY01-ANIMAL0011,7,GLUC,Glucose,107.6,mg/dL,107.6,107.6,mg/dL,70.0,150.0,N,,,Y,CENTRAL LAB,BLOOD,AUTOMATED,PRE-DOSE,0,2025-08-13,0
NCSTUDY01,LB,NCSTUDY01-ANIMAL0011,8,CREAT,Creatinine,0.4,mg/dL,0.4,0.4,mg/dL,0.2,0.6,N,,,Y,CENTRAL LAB,BLOOD,AUTOMATED,PRE-DOSE,0,2025-08-13,0
NCSTUDY01,LB,NCSTUDY01-ANIMAL0011,9,HGB,Hemoglobin,13.1,g/dL,13.1,13.1,g/dL,12.0,18.0,N,,,N,CENTRAL LAB,BLOOD,AUTOMATED,WEEK 2,14,2025-08-27,14
NCSTUDY01,LB,NCSTUDY01-ANIMAL0011,10,RBC,Red Blood Cell Count,6.7,10^6/µL,6.7,6.7,10^6/µL,6.0,10.0,N,,,N,CENTRAL LAB,BLOOD,AUTOMATED,WEEK 2,14,2025-08-27,14
NCSTUDY01,LB,NCSTUDY01-ANIMAL0011,11,WBC,White Blood Cell Count,8.9,10^3/µL,8.9,8.9,10^3/µL,5.0,15.0,N,,,N,CENTRAL LAB,BLOOD,AUTOMATED,WEEK 2,14,2025-08-27,14
NCSTUDY01,LB,NCSTUDY01-ANIMAL0011,12,PLT,Platelet Count,471.8,10^3/µL,471.8,471.8,10^3/µL,500.0,1300.0,L,,,N,CENTRAL LAB,BLOOD,AUTOMATED,WEEK 2,14,2025-08-27,14
NCSTUDY01,LB,NCSTUDY01-ANIMAL0011,13,ALT,Alanine Aminotransferase,50.6,U/L,50.6,50.6,U/L,20.0,90.0,N,,,N,CENTRAL LAB,BLOOD,AUTOMATED,WEEK 2,14,2025-08-27,14
NCSTUDY01,LB,NCSTUDY01-ANIMAL0011,14,AST,Aspartate Aminotransferase,104.6,U/L,104.6,104.6,U/L,40.0,120.0,N,,,N,CENTRAL LAB,BLOOD,AUTOMATED,WEEK 2,14,2025-08-27,14
NCSTUDY01,LB,NCSTUDY01-ANIMAL0011,15,GLUC,Glucose,86.4,mg/dL,86.4,86.4,mg/dL,70.0,150.0,N,,,N,CENTRAL LAB,BLOOD,AUTOMATED,WEEK 2,14,2025-08-27,14
NCSTUDY01,LB,NCSTUDY01-ANIMAL0011,16,CREAT,Creatinine,0.3,mg/dL,0.3,0.3,mg/dL,0.2,0.6,N,,,N,CENTRAL LAB,BLOOD,AUTOMATED,WEEK 2,14,2025-08-27,14
NCSTUDY01,LB,NCSTUDY01-ANIMAL0011,17,HGB,Hemoglobin,15.7,g/dL,15.7,15.7,g/dL,12.0,18.0,N,,,N,CENTRAL LAB,BLOOD,AUTOMATED,WEEK 4,28,2025-09-10,28
NCSTUDY01,LB,NCSTUDY01-ANIMAL0011,18,RBC,Red Blood Cell Count,8.7,10^6/µL,8.7,8.7,10^6/µL,6.0,10.0,N,,,N,CENTRAL LAB,BLOOD,AUTOMATED,WEEK 4,28,2025-09-10,28
NCSTUDY01,LB,NCSTUDY01-ANIMAL0011,19,WBC,White Blood Cell Count,6.3,10^3/µL,6.3,6.3,10^3/µL,5.0,15.0,N,,,N,CENTRAL LAB,BLOOD,AUTOMATED,WEEK 4,28,2025-09-10,28
NCSTUDY01,LB,NCSTUDY01-ANIMAL0011,20,PLT,Platelet Count,514.0,10^3/µL,514.0,514.0,10^3/µL,500.0,1300.0,N,,,N,CENTRAL LAB,BLOOD,AUTOMATED,WEEK 4,28,2025-09-10,28
NCSTUDY01,LB,NCSTUDY01-ANIMAL0011,21,ALT,Alanine Aminotransferase,61.2,U/L,61.2,61.2,U/L,20.0,90.0,N,,,N,CENTRAL LAB,BLOOD,AUTOMATED,WEEK 4,28,2025-09-10,28
NCSTUDY01,LB,NCSTUDY01-ANIMAL0011,22,AST,Aspartate Aminotransferase,104.7,U/L,104.7,104.7,U/L,40.0,120.0,N,,,N,CENTRAL LAB,BLOOD,AUTOMATED,WEEK 4,28,2025-09-10,28
NCSTUDY01,LB,NCSTUDY01-ANIMAL0011,23,GLUC,Glucose,146.1,mg/dL,146.1,146.1,mg/dL,70.0,150.0,N,,,N,CENTRAL LAB,BLOOD,AUTOMATED,WEEK 4,28,2025-09-10,28
NCSTUDY01,LB,NCSTUDY01-ANIMAL0011,24,CREAT,Creatinine,0.3,mg/dL,0.3,0.3,mg/dL,0.2,0.6,N,,,N,CENTRAL LAB,BLOOD,AUTOMATED,WEEK 4,28,2025-09-10,28
NCSTUDY01,LB,NCSTUDY01-ANIMAL0012,1,HGB,Hemoglobin,13.4,g/dL,13.4,13.4,g/dL,12.0,18.0,N,,,Y,CENTRAL LAB,BLOOD,AUTOMATED,PRE-DOSE,0,2025-08-13,0
NCSTUDY01,LB,NCSTUDY01-ANIMAL0012,2,RBC,Red Blood Cell Count,8.0,10^6/µL,8.0,8.0,10^6/µL,6.0,10.0,N,,,Y,CENTRAL LAB,BLOOD,AUTOMATED,PRE-DOSE,0,2025-08-13,0
NCSTUDY01,LB,NCSTUDY01-ANIMAL0012,3,WBC,White Blood Cell Count,15.1,10^3/µL,15.1,15.1,10^3/µL,5.0,15.0,H,,,Y,CENTRAL LAB,BLOOD,AUTOMATED,PRE-DOSE,0,2025-08-13,0
NCSTUDY01,LB,NCSTUDY01-ANIMAL0012,4,PLT,Platelet Count,1164.3,10^3/µL,1164.3,1164.3,10^3/µL,500.0,1300.0,N,,,Y,CENTRAL LAB,BLOOD,AUTOMATED,PRE-DOSE,0,2025-08-13,0
NCSTUDY01,LB,NCSTUDY01-ANIMAL0012,5,ALT,Alanine Aminotransferase,45.5,U/L,45.5,45.5,U/L,20.0,90.0,N,,,Y,CENTRAL LAB,BLOOD,AUTOMATED,PRE-DOSE,0,2025-08-13,0
NCSTUDY01,LB,NCSTUDY01-ANIMAL0012,6,AST,Aspartate Aminotransferase,78.9,U/L,78.9,78.9,U/L,40.0,120.0,N,,,Y,CENTRAL LAB,BLOOD,AUTOMATED,PRE-DOSE,0,2025-08-13,0
NCSTUDY01,LB,NCSTUDY01-ANIMAL0012,7,GLUC,Glucose,148.8,mg/dL,148.8,148.8,mg/dL,70.0,150.0,N,,,Y,CENTRAL LAB,BLOOD,AUTOMATED,PRE-DOSE,0,2025-08-13,0
NCSTUDY01,LB,NCSTUDY01-ANIMAL0012,8,CREAT,Creatinine,0.4,mg/dL,0.4,0.4,mg/dL,0.2,0.6,N,,,Y,CENTRAL LAB,BLOOD,AUTOMATED,PRE-DOSE,0,2025-08-13,0
NCSTUDY01,LB,NCSTUDY01-ANIMAL0012,9,HGB,Hemoglobin,13.8,g/dL,13.8,13.8,g/dL,12.0,18.0,N,,,N,CENTRAL LAB,BLOOD,AUTOMATED,WEEK 2,14,2025-08-27,14
NCSTUDY01,LB,NCSTUDY01-ANIMAL0012,10,RBC,Red Blood Cell Count,8.5,10^6/µL,8.5,8.5,10^6/µL,6.0,10.0,N,,,N,CENTRAL LAB,BLOOD,AUTOMATED,WEEK 2,14,2025-08-27,14
NCSTUDY01,LB,NCSTUDY01-ANIMAL0012,11,WBC,White Blood Cell Count,14.5,10^3/µL,14.5,14.5,10^3/µL,5.0,15.0,N,,,N,CENTRAL LAB,BLOOD,AUTOMATED,WEEK 2,14,2025-08-27,14
NCSTUDY01,LB,NCSTUDY01-ANIMAL0012,12,PLT,Platelet Count,1168.9,10^3/µL,1168.9,1168.9,10^3/µL,500.0,1300.0,N,,,N,CENTRAL LAB,BLOOD,AUTOMATED,WEEK 2,14,2025-08-27,14
NCSTUDY01,LB,NCSTUDY01-ANIMAL0012,13,ALT,Alanine Aminotransferase,46.2,U/L,46.2,46.2,U/L,20.0,90.0,N,,,N,CENTRAL LAB,BLOOD,AUTOMATED,WEEK 2,14,2025-08-27,14
NCSTUDY01,LB,NCSTUDY01-ANIMAL0012,14,AST,Aspartate Aminotransferase,77.3,U/L,77.3,77.3,U/L,40.0,120.0,N,,,N,CENTRAL LAB,BLOOD,AUTOMATED,WEEK 2,14,2025-08-27,14
NCSTUDY01,LB,NCSTUDY01-ANIMAL0012,15,GLUC,Glucose,150.6,mg/dL,150.6,150.6,mg/dL,70.0,150.0,H,,,N,CENTRAL LAB,BLOOD,AUTOMATED,WEEK 2,14,2025-08-27,14
NCSTUDY01,LB,NCSTUDY01-ANIMAL0012,16,CREAT,Creatinine,0.4,mg/dL,0.4,0.4,mg/dL,0.2,0.6,N,,,N,CENTRAL LAB,BLOOD,AUTOMATED,WEEK 2,14,2025-08-27,14
NCSTUDY01,LB,NCSTUDY01-ANIMAL0012,17,HGB,Hemoglobin,13.7,g/dL,13.7,13.7,g/dL,12.0,18.0,N,,,N,CENTRAL LAB,BLOOD,AUTOMATED,WEEK 4,28,2025-09-10,28
NCSTUDY01,LB,NCSTUDY01-ANIMAL0012,18,RBC,Red Blood Cell Count,8.4,10^6/µL,8.4,8.4,10^6/µL,6.0,10.0,N,,,N,CENTRAL LAB,BLOOD,AUTOMATED,WEEK 4,28,2025-09-10,28
NCSTUDY01,LB,NCSTUDY01-ANIMAL0012,19,WBC,White Blood Cell Count,14.3,10^3/µL,14.3,14.3,10^3/µL,5.0,15.0,N,,,N,CENTRAL LAB,BLOOD,AUTOMATED,WEEK 4,28,2025-09-10,28
NCSTUDY01,LB,NCSTUDY01-ANIMAL0012,20,PLT,Platelet Count,1066.3,10^3/µL,1066.3,1066.3,10^3/µL,500.0,1300.0,N,,,N,CENTRAL LAB,BLOOD,AUTOMATED,WEEK 4,28,2025-09-10,28
NCSTUDY01,LB,NCSTUDY01-ANIMAL0012,21,ALT,Alanine Aminotransferase,46.3,U/L,46.3,46.3,U/L,20.0,90.0,N,,,N,CENTRAL LAB,BLOOD,AUTOMATED,WEEK 4,28,2025-09-10,28
NCSTUDY01,LB,NCSTUDY01-ANIMAL0012,22,AST,Aspartate Aminotransferase,79.0,U/L,79.0,79.0,U/L,40.0,120.0,N,,,N,CENTRAL LAB,BLOOD,AUTOMATED,WEEK 4,28,2025-09-10,28
NCSTUDY01,LB,NCSTUDY01-ANIMAL0012,23,GLUC,Glucose,152.1,mg/dL,152.1,152.1,mg/dL,70.0,150.0,H,,,N,CENTRAL LAB,BLOOD,AUTOMATED,WEEK 4,28,2025-09-10,28
NCSTUDY01,LB,NCSTUDY01-ANIMAL0012,24,CREAT,Creatinine,0.4,mg/dL,0.4,0.4,mg/dL,0.2,0.6,N,,,N,CENTRAL LAB,BLOOD,AUTOMATED,WEEK 4,28,2025-09-10,28
NCSTUDY01,LB,NCSTUDY01-ANIMAL0013,1,HGB,Hemoglobin,14.4,g/dL,14.4,14.4,g/dL,12.0,18.0,N,,,Y,CENTRAL LAB,BLOOD,AUTOMATED,PRE-DOSE,0,2025-09-07,0
NCSTUDY01,LB,NCSTUDY01-ANIMAL0013,2,RBC,Red Blood Cell Count,6.2,10^6/µL,6.2,6.2,10^6/µL,6.0,10.0,N,,,Y,CENTRAL LAB,BLOOD,AUTOMATED,PRE-DOSE,0,2025-09-07,0
NCSTUDY01,LB,NCSTUDY01-ANIMAL0013,3,WBC,White Blood Cell Count,8.2,10^3/µL,8.2,8.2,10^3/µL,5.0,15.0,N,,,Y,CENTRAL LAB,BLOOD,AUTOMATED,PRE-DOSE,0,2025-09-07,0
NCSTUDY01,LB,NCSTUDY01-ANIMAL0013,4,PLT,Platelet Count,1135.0,10^3/µL,1135.0,1135.0,10^3/µL,500.0,1300.0,N,,,Y,CENTRAL LAB,BLOOD,AUTOMATED,PRE-DOSE,0,2025-09-07,0
NCSTUDY01,LB,NCSTUDY01-ANIMAL0013,5,ALT,Alanine Aminotransferase,80.6,U/L,80.6,80.6,U/L,20.0,90.0,N,,,Y,CENTRAL LAB,BLOOD,AUTOMATED,PRE-DOSE,0,2025-09-07,0
NCSTUDY01,LB,NCSTUDY01-ANIMAL0013,6,AST,Aspartate Aminotransferase,113.4,U/L,113.4,113.4,U/L,40.0,120.0,N,,,Y,CENTRAL LAB,BLOOD,AUTOMATED,PRE-DOSE,0,2025-09-07,0
NCSTUDY01,LB,NCSTUDY01-ANIMAL0013,7,GLUC,Glucose,73.5,mg/dL,73.5,73.5,mg/dL,70.0,150.0,N,,,Y,CENTRAL LAB,BLOOD,AUTOMATED,PRE-DOSE,0,2025-09-07,0
NCSTUDY01,LB,NCSTUDY01-ANIMAL0013,8,CREAT,Creatinine,0.4,mg/dL,0.4,0.4,mg/dL,0.2,0.6,N,,,Y,CENTRAL LAB,BLOOD,AUTOMATED,PRE-DOSE,0,2025-09-07,0
NCSTUDY01,LB,NCSTUDY01-ANIMAL0013,9,HGB,Hemoglobin,13.3,g/dL,13.3,13.3,g/dL,12.0,18.0,N,,,N,CENTRAL LAB,BLOOD,AUTOMATED,WEEK 2,14,2025-09-21,14
NCSTUDY01,LB,NCSTUDY01-ANIMAL0013,10,RBC,Red Blood Cell Count,6.7,10^6/µL,6.7,6.7,10^6/µL,6.0,10.0,N,,,N,CENTRAL LAB,BLOOD,AUTOMATED,WEEK 2,14,2025-09-21,14
NCSTUDY01,LB,NCSTUDY01-ANIMAL0013,11,WBC,White Blood Cell Count,9.1,10^3/µL,9.1,9.1,10^3/µL,5.0,15.0,N,,,N,CENTRAL LAB,BLOOD,AUTOMATED,WEEK 2,14,2025-09-21,14
NCSTUDY01,LB,NCSTUDY01-ANIMAL0013,12,PLT,Platelet Count,1309.1,10^3/µL,1309.1,1309.1,10^3/µL,500.0,1300.0,H,,,N,CENTRAL LAB,BLOOD,AUTOMATED,WEEK 2,14,2025-09-21,14
NCSTUDY01,LB,NCSTUDY01-ANIMAL0013,13,ALT,Alanine Aminotransferase,83.1,U/L,83.1,83.1,U/L,20.0,90.0,N,,,N,CENTRAL LAB,BLOOD,AUTOMATED,WEEK 2,14,2025-09-21,14
NCSTUDY01,LB,NCSTUDY01-ANIMAL0013,14,AST,Aspartate Aminotransferase,90.8,U/L,90.8,90.8,U/L,40.0,120.0,N,,,N,CENTRAL LAB,BLOOD,AUTOMATED,WEEK 2,14,2025-09-21,14
NCSTUDY01,LB,NCSTUDY01-ANIMAL0013,15,GLUC,Glucose,91.4,mg/dL,91.4,91.4,mg/dL,70.0,150.0,N,,,N,CENTRAL LAB,BLOOD,AUTOMATED,WEEK 2,14,2025-09-21,14
NCSTUDY01,LB,NCSTUDY01-ANIMAL0013,16,CREAT,Creatinine,0.3,mg/dL,0.3,0.3,mg/dL,0.2,0.6,N,,,N,CENTRAL LAB,BLOOD,AUTOMATED,WEEK 2,14,2025-09-21,14
NCSTUDY01,LB,NCSTUDY01-ANIMAL0013,17,HGB,Hemoglobin,11.9,g/dL,11.9,11.9,g/dL,12.0,18.0,L,,,N,CENTRAL LAB,BLOOD,AUTOMATED,WEEK 4,28,2025-10-05,28
NCSTUDY01,LB,NCSTUDY01-ANIMAL0013,18,RBC,Red Blood Cell Count,6.4,10^6/µL,6.4,6.4,10^6/µL,6.0,10.0,N,,,N,CENTRAL LAB,BLOOD,AUTOMATED,WEEK 4,28,2025-10-05,28
NCSTUDY01,LB,NCSTUDY01-ANIMAL0013,19,WBC,White Blood Cell Count,7.1,10^3/µL,7.1,7.1,10^3/µL,5.0,15.0,N,,,N,CENTRAL LAB,BLOOD,AUTOMATED,WEEK 4,28,2025-10-05,28
NCSTUDY01,LB,NCSTUDY01-ANIMAL0013,20,PLT,Platelet Count,1497.8,10^3/µL,1497.8,1497.8,10^3/µL,500.0,1300.0,H,,,N,CENTRAL LAB,BLOOD,AUTOMATED,WEEK 4,28,2025-10-05,28
NCSTUDY01,LB,NCSTUDY01-ANIMAL0013,21,ALT,Alanine Aminotransferase,114.7,U/L,114.7,114.7,U/L,20.0,90.0,H,,,N,CENTRAL LAB,BLOOD,AUTOMATED,WEEK 4,28,2025-10-05,28
NCSTUDY01,LB,NCSTUDY01-ANIMAL0013,22,AST,Aspartate Aminotransferase,164.3,U/L,164.3,164.3,U/L,40.0,120.0,H,,,N,CENTRAL LAB,BLOOD,AUTOMATED,WEEK 4,28,2025-10-05,28
NCSTUDY01,LB,NCSTUDY01-ANIMAL0013,23,GLUC,Glucose,77.1,mg/dL,77.1,77.1,mg/dL,70.0,150.0,N,,,N,CENTRAL LAB,BLOOD,AUTOMATED,WEEK 4,28,2025-10-05,28
NCSTUDY01,LB,NCSTUDY01-ANIMAL0013,24,CREAT,Creatinine,0.5,mg/dL,0.5,0.5,mg/dL,0.2,0.6,N,,,N,CENTRAL LAB,BLOOD,AUTOMATED,WEEK 4,28,2025-10-05,28
NCSTUDY01,LB,NCSTUDY01-ANIMAL0014,1,HGB,Hemoglobin,13.9,g/dL,13.9,13.9,g/dL,12.0,18.0,N,,,Y,CENTRAL LAB,BLOOD,AUTOMATED,PRE-DOSE,0,2025-09-03,0
NCSTUDY01,LB,NCSTUDY01-ANIMAL0014,2,RBC,Red Blood Cell Count,9.6,10^6/µL,9.6,9.6,10^6/µL,6.0,10.0,N,,,Y,CENTRAL LAB,BLOOD,AUTOMATED,PRE-DOSE,0,2025-09-03,0
NCSTUDY01,LB,NCSTUDY01-ANIMAL0014,3,WBC,White Blood Cell Count,11.1,10^3/µL,11.1,11.1,10^3/µL,5.0,15.0,N,,,Y,CENTRAL LAB,BLOOD,AUTOMATED,PRE-DOSE,0,2025-09-03,0
NCSTUDY01,LB,NCSTUDY01-ANIMAL0014,4,PLT,Platelet Count,913.3,10^3/µL,913.3,913.3,10^3/µL,500.0,1300.0,N,,,Y,CENTRAL LAB,BLOOD,AUTOMATED,PRE-DOSE,0,2025-09-03,0
NCSTUDY01,LB,NCSTUDY01-ANIMAL0014,5,ALT,Alanine Aminotransferase,40.3,U/L,40.3,40.3,U/L,20.0,90.0,N,,,Y,CENTRAL LAB,BLOOD,AUTOMATED,PRE-DOSE,0,2025-09-03,0
NCSTUDY01,LB,NCSTUDY01-ANIMAL0014,6,AST,Aspartate Aminotransferase,42.3,U/L,42.3,42.3,U/L,40.0,120.0,N,,,Y,CENTRAL LAB,BLOOD,AUTOMATED,PRE-DOSE,0,2025-09-03,0
NCSTUDY01,LB,NCSTUDY01-ANIMAL0014,7,GLUC,Glucose,80.6,mg/dL,80.6,80.6,mg/dL,70.0,150.0,N,,,Y,CENTRAL LAB,BLOOD,AUTOMATED,PRE-DOSE,0,2025-09-03,0
NCSTUDY01,LB,NCSTUDY01-ANIMAL0014,8,CREAT,Creatinine,0.4,mg/dL,0.4,0.4,mg/dL,0.2,0.6,N,,,Y,CENTRAL LAB,BLOOD,AUTOMATED,PRE-DOSE,0,2025-09-03,0
NCSTUDY01,LB,NCSTUDY01-ANIMAL0014,9,HGB,Hemoglobin,13.4,g/dL,13.4,13.4,g/dL,12.0,18.0,N,,,N,CENTRAL LAB,BLOOD,AUTOMATED,WEEK 2,14,2025-09-17,14
NCSTUDY01,LB,NCSTUDY01-ANIMAL0014,10,RBC,Red Blood Cell Count,10.1,10^6/µL,10.1,10.1,10^6/µL,6.0,10.0,H,,,N,CENTRAL LAB,BLOOD,AUTOMATED,WEEK 2,14,2025-09-17,14
NCSTUDY01,LB,NCSTUDY01-ANIMAL0014,11,WBC,White Blood Cell Count,11.1,10^3/µL,11.1,11.1,10^3/µL,5.0,15.0,N,,,N,CENTRAL LAB,BLOOD,AUTOMATED,WEEK 2,14,2025-09-17,14
NCSTUDY01,LB,NCSTUDY01-ANIMAL0014,12,PLT,Platelet Count,892.9,10^3/µL,892.9,892.9,10^3/µL,500.0,1300.0,N,,,N,CENTRAL LAB,BLOOD,AUTOMATED,WEEK 2,14,2025-09-17,14
NCSTUDY01,LB,NCSTUDY01-ANIMAL0014,13,ALT,Alanine Aminotransferase,40.8,U/L,40.8,40.8,U/L,20.0,90.0,N,,,N,CENTRAL LAB,BLOOD,AUTOMATED,WEEK 2,14,2025-09-17,14
NCSTUDY01,LB,NCSTUDY01-ANIMAL0014,14,AST,Aspartate Aminotransferase,43.8,U/L,43.8,43.8,U/L,40.0,120.0,N,,,N,CENTRAL LAB,BLOOD,AUTOMATED,WEEK 2,14,2025-09-17,14
NCSTUDY01,LB,NCSTUDY01-ANIMAL0014,15,GLUC,Glucose,76.2,mg/dL,76.2,76.2,mg/dL,70.0,150.0,N,,,N,CENTRAL LAB,BLOOD,AUTOMATED,WEEK 2,14,2025-09-17,14
NCSTUDY01,LB,NCSTUDY01-ANIMAL0014,16,CREAT,Creatinine,0.4,mg/dL,0.4,0.4,mg/dL,0.2,0.6,N,,,N,CENTRAL LAB,BLOOD,AUTOMATED,WEEK 2,14,2025-09-17,14
NCSTUDY01,LB,NCSTUDY01-ANIMAL0014,17,HGB,Hemoglobin,14.0,g/dL,14.0,14.0,g/dL,12.0,18.0,N,,,N,CENTRAL LAB,BLOOD,AUTOMATED,WEEK 4,28,2025-10-01,28
NCSTUDY01,LB,NCSTUDY01-ANIMAL0014,18,RBC,Red Blood Cell Count,10.0,10^6/µL,10.0,10.0,10^6/µL,6.0,10.0,N,,,N,CENTRAL LAB,BLOOD,AUTOMATED,WEEK 4,28,2025-10-01,28
NCSTUDY01,LB,NCSTUDY01-ANIMAL0014,19,WBC,White Blood Cell Count,10.6,10^3/µL,10.6,10.6,10^3/µL,5.0,15.0,N,,,N,CENTRAL LAB,BLOOD,AUTOMATED,WEEK 4,28,2025-10-01,28
NCSTUDY01,LB,NCSTUDY01-ANIMAL0014,20,PLT,Platelet Count,957.8,10^3/µL,957.8,957.8,10^3/µL,500.0,1300.0,N,,,N,CENTRAL LAB,BLOOD,AUTOMATED,WEEK 4,28,2025-10-01,28
NCSTUDY01,LB,NCSTUDY01-ANIMAL0014,21,ALT,Alanine Aminotransferase,42.9,U/L,42.9,42.9,U/L,20.0,90.0,N,,,N,CENTRAL LAB,BLOOD,AUTOMATED,WEEK 4,28,2025-10-01,28
NCSTUDY01,LB,NCSTUDY01-ANIMAL0014,22,AST,Aspartate Aminotransferase,42.6,U/L,42.6,42.6,U/L,40.0,120.0,N,,,N,CENTRAL LAB,BLOOD,AUTOMATED,WEEK 4,28,2025-10-01,28
NCSTUDY01,LB,NCSTUDY01-ANIMAL0014,23,GLUC,Glucose,77.9,mg/dL,77.9,77.9,mg/dL,70.0,150.0,N,,,N,CENTRAL LAB,BLOOD,AUTOMATED,WEEK 4,28,2025-10-01,28
NCSTUDY01,LB,NCSTUDY01-ANIMAL0014,24,CREAT,Creatinine,0.4,mg/dL,0.4,0.4,mg/dL,0.2,0.6,N,,,N,CENTRAL LAB,BLOOD,AUTOMATED,WEEK 4,28,2025-10-01,28
NCSTUDY01,LB,NCSTUDY01-ANIMAL0015,1,HGB,Hemoglobin,11.8,g/dL,11.8,11.8,g/dL,12.0,18.0,L,,,Y,CENTRAL LAB,BLOOD,AUTOMATED,PRE-DOSE,0,2025-08-15,0
NCSTUDY01,LB,NCSTUDY01-ANIMAL0015,2,RBC,Red Blood Cell Count,8.0,10^6/µL,8.0,8.0,10^6/µL,6.0,10.0,N,,,Y,CENTRAL LAB,BLOOD,AUTOMATED,PRE-DOSE,0,2025-08-15,0
NCSTUDY01,LB,NCSTUDY01-ANIMAL0015,3,WBC,White Blood Cell Count,11.0,10^3/µL,11.0,11.0,10^3/µL,5.0,15.0,N,,,Y,CENTRAL LAB,BLOOD,AUTOMATED,PRE-DOSE,0,2025-08-15,0
NCSTUDY01,LB,NCSTUDY01-ANIMAL0015,4,PLT,Platelet Count,809.7,10^3/µL,809.7,809.7,10^3/µL,500.0,1300.0,N,,,Y,CENTRAL LAB,BLOOD,AUTOMATED,PRE-DOSE,0,2025-08-15,0
NCSTUDY01,LB,NCSTUDY01-ANIMAL0015,5,ALT,Alanine Aminotransferase,81.1,U/L,81.1,81.1,U/L,20.0,90.0,N,,,Y,CENTRAL LAB,BLOOD,AUTOMATED,PRE-DOSE,0,2025-08-15,0
NCSTUDY01,LB,NCSTUDY01-ANIMAL0015,6,AST,Aspartate Aminotransferase,114.8,U/L,114.8,114.8,U/L,40.0,120.0,N,,,Y,CENTRAL LAB,BLOOD,AUTOMATED,PRE-DOSE,0,2025-08-15,0
NCSTUDY01,LB,NCSTUDY01-ANIMAL0015,7,GLUC,Glucose,138.3,mg/dL,138.3,138.3,mg/dL,70.0,150.0,N,,,Y,CENTRAL LAB,BLOOD,AUTOMATED,PRE-DOSE,0,2025-08-15,0
NCSTUDY01,LB,NCSTUDY01-ANIMAL0015,8,CREAT,Creatinine,0.4,mg/dL,0.4,0.4,mg/dL,0.2,0.6,N,,,Y,CENTRAL LAB,BLOOD,AUTOMATED,PRE-DOSE,0,2025-08-15,0
NCSTUDY01,LB,NCSTUDY01-ANIMAL0015,9,HGB,Hemoglobin,12.7,g/dL,12.7,12.7,g/dL,12.0,18.0,N,,,N,CENTRAL LAB,BLOOD,AUTOMATED,WEEK 2,14,2025-08-29,14
NCSTUDY01,LB,NCSTUDY01-ANIMAL0015,10,RBC,Red Blood Cell Count,8.4,10^6/µL,8.4,8.4,10^6/µL,6.0,10.0,N,,,N,CENTRAL LAB,BLOOD,AUTOMATED,WEEK 2,14,2025-08-29,14
NCSTUDY01,LB,NCSTUDY01-ANIMAL0015,11,WBC,White Blood Cell Count,12.1,10^3/µL,12.1,12.1,10^3/µL,5.0,15.0,N,,,N,CENTRAL LAB,BLOOD,AUTOMATED,WEEK 2,14,2025-08-29,14
NCSTUDY01,LB,NCSTUDY01-ANIMAL0015,12,PLT,Platelet Count,781.4,10^3/µL,781.4,781.4,10^3/µL,500.0,1300.0,N,,,N,CENTRAL LAB,BLOOD,AUTOMATED,WEEK 2,14,2025-08-29,14
NCSTUDY01,LB,NCSTUDY01-ANIMAL0015,13,ALT,Alanine Aminotransferase,86.6,U/L,86.6,86.6,U/L,20.0,90.0,N,,,N,CENTRAL LAB,BLOOD,AUTOMATED,WEEK 2,14,2025-08-29,14
NCSTUDY01,LB,NCSTUDY01-ANIMAL0015,14,AST,Aspartate Aminotransferase,119.1,U/L,119.1,119.1,U/L,40.0,120.0,N,,,N,CENTRAL LAB,BLOOD,AUTOMATED,WEEK 2,14,2025-08-29,14
NCSTUDY01,LB,NCSTUDY01-ANIMAL0015,15,GLUC,Glucose,143.7,mg/dL,143.7,143.7,mg/dL,70.0,150.0,N,,,N,CENTRAL LAB,BLOOD,AUTOMATED,WEEK 2,14,2025-08-29,14
NCSTUDY01,LB,NCSTUDY01-ANIMAL0015,16,CREAT,Creatinine,0.4,mg/dL,0.4,0.4,mg/dL,0.2,0.6,N,,,N,CENTRAL LAB,BLOOD,AUTOMATED,WEEK 2,14,2025-08-29,14
NCSTUDY01,LB,NCSTUDY01-ANIMAL0015,17,HGB,Hemoglobin,12.3,g/dL,12.3,12.3,g/dL,12.0,18.0,N,,,N,CENTRAL LAB,BLOOD,AUTOMATED,WEEK 4,28,2025-09-12,28
NCSTUDY01,LB,NCSTUDY01-ANIMAL0015,18,RBC,Red Blood Cell Count,8.4,10^6/µL,8.4,8.4,10^6/µL,6.0,10.0,N,,,N,CENTRAL LAB,BLOOD,AUTOMATED,WEEK 4,28,2025-09-12,28
NCSTUDY01,LB,NCSTUDY01-ANIMAL0015,19,WBC,White Blood Cell Count,12.1,10^3/µL,12.1,12.1,10^3/µL,5.0,15.0,N,,,N,CENTRAL LAB,BLOOD,AUTOMATED,WEEK 4,28,2025-09-12,28
NCSTUDY01,LB,NCSTUDY01-ANIMAL0015,20,PLT,Platelet Count,765.6,10^3/µL,765.6,765.6,10^3/µL,500.0,1300.0,N,,,N,CENTRAL LAB,BLOOD,AUTOMATED,WEEK 4,28,2025-09-12,28
NCSTUDY01,LB,NCSTUDY01-ANIMAL0015,21,ALT,Alanine Aminotransferase,83.1,U/L,83.1,83.1,U/L,20.0,90.0,N,,,N,CENTRAL LAB,BLOOD,AUTOMATED,WEEK 4,28,2025-09-12,28
NCSTUDY01,LB,NCSTUDY01-ANIMAL0015,22,AST,Aspartate Aminotransferase,112.0,U/L,112.0,112.0,U/L,40.0,120.0,N,,,N,CENTRAL LAB,BLOOD,AUTOMATED,WEEK 4,28,2025-09-12,28
NCSTUDY01,LB,NCSTUDY01-ANIMAL0015,23,GLUC,Glucose,136.9,mg/dL,136.9,136.9,mg/dL,70.0,150.0,N,,,N,CENTRAL LAB,BLOOD,AUTOMATED,WEEK 4,28,2025-09-12,28
NCSTUDY01,LB,NCSTUDY01-ANIMAL0015,24,CREAT,Creatinine,0.4,mg/dL,0.4,0.4,mg/dL,0.2,0.6,N,,,N,CENTRAL LAB,BLOOD,AUTOMATED,WEEK 4,28,2025-09-12,28
NCSTUDY01,LB,NCSTUDY01-ANIMAL0016,1,HGB,Hemoglobin,16.2,g/dL,16.2,16.2,g/dL,12.0,18.0,N,,,Y,CENTRAL LAB,BLOOD,AUTOMATED,PRE-DOSE,0,2025-07-06,0
NCSTUDY01,LB,NCSTUDY01-ANIMAL0016,2,RBC,Red Blood Cell Count,8.7,10^6/µL,8.7,8.7,10^6/µL,6.0,10.0,N,,,Y,CENTRAL LAB,BLOOD,AUTOMATED,PRE-DOSE,0,2025-07-06,0
NCSTUDY01,LB,NCSTUDY01-ANIMAL0016,3,WBC,White Blood Cell Count,14.6,10^3/µL,14.6,14.6,10^3/µL,5.0,15.0,N,,,Y,CENTRAL LAB,BLOOD,AUTOMATED,PRE-DOSE,0,2025-07-06,0
NCSTUDY01,LB,NCSTUDY01-ANIMAL0016,4,PLT,Platelet Count,1291.2,10^3/µL,1291.2,1291.2,10^3/µL,500.0,1300.0,N,,,Y,CENTRAL LAB,BLOOD,AUTOMATED,PRE-DOSE,0,2025-07-06,0
NCSTUDY01,LB,NCSTUDY01-ANIMAL0016,5,ALT,Alanine Aminotransferase,32.6,U/L,32.6,32.6,U/L,20.0,90.0,N,,,Y,CENTRAL LAB,BLOOD,AUTOMATED,PRE-DOSE,0,2025-07-06,0
NCSTUDY01,LB,NCSTUDY01-ANIMAL0016,6,AST,Aspartate Aminotransferase,80.6,U/L,80.6,80.6,U/L,40.0,120.0,N,,,Y,CENTRAL LAB,BLOOD,AUTOMATED,PRE-DOSE,0,2025-07-06,0
NCSTUDY01,LB,NCSTUDY01-ANIMAL0016,7,GLUC,Glucose,132.0,mg/dL,132.0,132.0,mg/dL,70.0,150.0,N,,,Y,CENTRAL LAB,BLOOD,AUTOMATED,PRE-DOSE,0,2025-07-06,0
NCSTUDY01,LB,NCSTUDY01-ANIMAL0016,8,CREAT,Creatinine,0.2,mg/dL,0.2,0.2,mg/dL,0.2,0.6,L,,,Y,CENTRAL LAB,BLOOD,AUTOMATED,PRE-DOSE,0,2025-07-06,0
NCSTUDY01,LB,NCSTUDY01-ANIMAL0016,9,HGB,Hemoglobin,16.4,g/dL,16.4,16.4,g/dL,12.0,18.0,N,,,N,CENTRAL LAB,BLOOD,AUTOMATED,WEEK 2,14,2025-07-20,14
NCSTUDY01,LB,NCSTUDY01-ANIMAL0016,10,RBC,Red Blood Cell Count,8.7,10^6/µL,8.7,8.7,10^6/µL,6.0,10.0,N,,,N,CENTRAL LAB,BLOOD,AUTOMATED,WEEK 2,14,2025-07-20,14
NCSTUDY01,LB,NCSTUDY01-ANIMAL0016,11,WBC,White Blood Cell Count,14.3,10^3/µL,14.3,14.3,10^3/µL,5.0,15.0,N,,,N,CENTRAL LAB,BLOOD,AUTOMATED,WEEK 2,14,2025-07-20,14
NCSTUDY01,LB,NCSTUDY01-ANIMAL0016,12,PLT,Platelet Count,1226.3,10^3/µL,1226.3,1226.3,10^3/µL,500.0,1300.0,N,,,N,CENTRAL LAB,BLOOD,AUTOMATED,WEEK 2,14,2025-07-20,14
NCSTUDY01,LB,NCSTUDY01-ANIMAL0016,13,ALT,Alanine Aminotransferase,33.1,U/L,33.1,33.1,U/L,20.0,90.0,N,,,N,CENTRAL LAB,BLOOD,AUTOMATED,WEEK 2,14,2025-07-20,14
NCSTUDY01,LB,NCSTUDY01-ANIMAL0016,14,AST,Aspartate Aminotransferase,82.3,U/L,82.3,82.3,U/L,40.0,120.0,N,,,N,CENTRAL LAB,BLOOD,AUTOMATED,WEEK 2,14,2025-07-20,14
NCSTUDY01,LB,NCSTUDY01-ANIMAL0016,15,GLUC,Glucose,132.7,mg/dL,132.7,132.7,mg/dL,70.0,150.0,N,,,N,CENTRAL LAB,BLOOD,AUTOMATED,WEEK 2,14,2025-07-20,14
NCSTUDY01,LB,NCSTUDY01-ANIMAL0016,16,CREAT,Creatinine,0.2,mg/dL,0.2,0.2,mg/dL,0.2,0.6,N,,,N,CENTRAL LAB,BLOOD,AUTOMATED,WEEK 2,14,2025-07-20,14
NCSTUDY01,LB,NCSTUDY01-ANIMAL0016,17,HGB,Hemoglobin,16.3,g/dL,16.3,16.3,g/dL,12.0,18.0,N,,,N,CENTRAL LAB,BLOOD,AUTOMATED,WEEK 4,28,2025-08-03,28
NCSTUDY01,LB,NCSTUDY01-ANIMAL0016,18,RBC,Red Blood Cell Count,8.8,10^6/µL,8.8,8.8,10^6/µL,6.0,10.0,N,,,N,CENTRAL LAB,BLOOD,AUTOMATED,WEEK 4,28,2025-08-03,28
NCSTUDY01,LB,NCSTUDY01-ANIMAL0016,19,WBC,White Blood Cell Count,14.7,10^3/µL,14.7,14.7,10^3/µL,5.0,15.0,N,,,N,CENTRAL LAB,BLOOD,AUTOMATED,WEEK 4,28,2025-08-03,28
NCSTUDY01,LB,NCSTUDY01-ANIMAL0016,20,PLT,Platelet Count,1190.9,10^3/µL,1190.9,1190.9,10^3/µL,500.0,1300.0,N,,,N,CENTRAL LAB,BLOOD,AUTOMATED,WEEK 4,28,2025-08-03,28
NCSTUDY01,LB,NCSTUDY01-ANIMAL0016,21,ALT,Alanine Aminotransferase,30.4,U/L,30.4,30.4,U/L,20.0,90.0,N,,,N,CENTRAL LAB,BLOOD,AUTOMATED,WEEK 4,28,2025-08-03,28
NCSTUDY01,LB,NCSTUDY01-ANIMAL0016,22,AST,Aspartate Aminotransferase,84.1,U/L,84.1,84.1,U/L,40.0,120.0,N,,,N,CENTRAL LAB,BLOOD,AUTOMATED,WEEK 4,28,2025-08-03,28
NCSTUDY01,LB,NCSTUDY01-ANIMAL0016,23,GLUC,Glucose,127.1,mg/dL,127.1,127.1,mg/dL,70.0,150.0,N,,,N,CENTRAL LAB,BLOOD,AUTOMATED,WEEK 4,28,2025-08-03,28
NCSTUDY01,LB,NCSTUDY01-ANIMAL0016,24,CREAT,Creatinine,0.2,mg/dL,0.2,0.2,mg/dL,0.2,0.6,L,,,N,CENTRAL LAB,BLOOD,AUTOMATED,WEEK 4,28,2025-08-03,28
NCSTUDY01,LB,NCSTUDY01-ANIMAL0017,1,HGB,Hemoglobin,14.3,g/dL,14.3,14.3,g/dL,12.0,18.0,N,,,Y,CENTRAL LAB,BLOOD,AUTOMATED,PRE-DOSE,0,2025-07-14,0
NCSTUDY01,LB,NCSTUDY01-ANIMAL0017,2,RBC,Red Blood Cell Count,9.5,10^6/µL,9.5,9.5,10^6/µL,6.0,10.0,N,,,Y,CENTRAL LAB,BLOOD,AUTOMATED,PRE-DOSE,0,2025-07-14,0
NCSTUDY01,LB,NCSTUDY01-ANIMAL0017,3,WBC,White Blood Cell Count,12.4,10^3/µL,12.4,12.4,10^3/µL,5.0,15.0,N,,,Y,CENTRAL LAB,BLOOD,AUTOMATED,PRE-DOSE,0,2025-07-14,0
NCSTUDY01,LB,NCSTUDY01-ANIMAL0017,4,PLT,Platelet Count,781.0,10^3/µL,781.0,781.0,10^3/µL,500.0,1300.0,N,,,Y,CENTRAL LAB,BLOOD,AUTOMATED,PRE-DOSE,0,2025-07-14,0
NCSTUDY01,LB,NCSTUDY01-ANIMAL0017,5,ALT,Alanine Aminotransferase,90.8,U/L,90.8,90.8,U/L,20.0,90.0,H,,,Y,CENTRAL LAB,BLOOD,AUTOMATED,PRE-DOSE,0,2025-07-14,0
NCSTUDY01,LB,NCSTUDY01-ANIMAL0017,6,AST,Aspartate Aminotransferase,105.7,U/L,105.7,105.7,U/L,40.0,120.0,N,,,Y,CENTRAL LAB,BLOOD,AUTOMATED,PRE-DOSE,0,2025-07-14,0
NCSTUDY01,LB,NCSTUDY01-ANIMAL0017,7,GLUC,Glucose,145.0,mg/dL,145.0,145.0,mg/dL,70.0,150.0,N,,,Y,CENTRAL LAB,BLOOD,AUTOMATED,PRE-DOSE,0,2025-07-14,0
NCSTUDY01,LB,NCSTUDY01-ANIMAL0017,8,CREAT,Creatinine,0.3,mg/dL,0.3,0.3,mg/dL,0.2,0.6,N,,,Y,CENTRAL LAB,BLOOD,AUTOMATED,PRE-DOSE,0,2025-07-14,0
NCSTUDY01,LB,NCSTUDY01-ANIMAL0017,9,HGB,Hemoglobin,15.2,g/dL,15.2,15.2,g/dL,12.0,18.0,N,,,N,CENTRAL LAB,BLOOD,AUTOMATED,WEEK 2,14,2025-07-28,14
NCSTUDY01,LB,NCSTUDY01-ANIMAL0017,10,RBC,Red Blood Cell Count,9.7,10^6/µL,9.7,9.7,10^6/µL,6.0,10.0,N,,,N,CENTRAL LAB,BLOOD,AUTOMATED,WEEK 2,14,2025-07-28,14
NCSTUDY01,LB,NCSTUDY01-ANIMAL0017,11,WBC,White Blood Cell Count,13.0,10^3/µL,13.0,13.0,10^3/µL,5.0,15.0,N,,,N,CENTRAL LAB,BLOOD,AUTOMATED,WEEK 2,14,2025-07-28,14
NCSTUDY01,LB,NCSTUDY01-ANIMAL0017,12,PLT,Platelet Count,773.4,10^3/µL,773.4,773.4,10^3/µL,500.0,1300.0,N,,,N,CENTRAL LAB,BLOOD,AUTOMATED,WEEK 2,14,2025-07-28,14
NCSTUDY01,LB,NCSTUDY01-ANIMAL0017,13,ALT,Alanine Aminotransferase,89.5,U/L,89.5,89.5,U/L,20.0,90.0,N,,,N,CENTRAL LAB,BLOOD,AUTOMATED,WEEK 2,14,2025-07-28,14
NCSTUDY01,LB,NCSTUDY01-ANIMAL0017,14,AST,Aspartate Aminotransferase,112.5,U/L,112.5,112.5,U/L,40.0,120.0,N,,,N,CENTRAL LAB,BLOOD,AUTOMATED,WEEK 2,14,2025-07-28,14
NCSTUDY01,LB,NCSTUDY01-ANIMAL0017,15,GLUC,Glucose,146.5,mg/dL,146.5,146.5,mg/dL,70.0,150.0,N,,,N,CENTRAL LAB,BLOOD,AUTOMATED,WEEK 2,14,2025-07-28,14
NCSTUDY01,LB,NCSTUDY01-ANIMAL0017,16,CREAT,Creatinine,0.3,mg/dL,0.3,0.3,mg/dL,0.2,0.6,N,,,N,CENTRAL LAB,BLOOD,AUTOMATED,WEEK 2,14,2025-07-28,14
NCSTUDY01,LB,NCSTUDY01-ANIMAL0017,17,HGB,Hemoglobin,12.9,g/dL,12.9,12.9,g/dL,12.0,18.0,N,,,N,CENTRAL LAB,BLOOD,AUTOMATED,WEEK 4,28,2025-08-11,28
NCSTUDY01,LB,NCSTUDY01-ANIMAL0017,18,RBC,Red Blood Cell Count,11.5,10^6/µL,11.5,11.5,10^6/µL,6.0,10.0,H,,,N,CENTRAL LAB,BLOOD,AUTOMATED,WEEK 4,28,2025-08-11,28
NCSTUDY01,LB,NCSTUDY01-ANIMAL0017,19,WBC,White Blood Cell Count,10.7,10^3/µL,10.7,10.7,10^3/µL,5.0,15.0,N,,,N,CENTRAL LAB,BLOOD,AUTOMATED,WEEK 4,28,2025-08-11,28
NCSTUDY01,LB,NCSTUDY01-ANIMAL0017,20,PLT,Platelet Count,886.2,10^3/µL,886.2,886.2,10^3/µL,500.0,1300.0,N,,,N,CENTRAL LAB,BLOOD,AUTOMATED,WEEK 4,28,2025-08-11,28
NCSTUDY01,LB,NCSTUDY01-ANIMAL0017,21,ALT,Alanine Aminotransferase,91.7,U/L,91.7,91.7,U/L,20.0,90.0,H,,,N,CENTRAL LAB,BLOOD,AUTOMATED,WEEK 4,28,2025-08-11,28
NCSTUDY01,LB,NCSTUDY01-ANIMAL0017,22,AST,Aspartate Aminotransferase,79.0,U/L,79.0,79.0,U/L,40.0,120.0,N,,,N,CENTRAL LAB,BLOOD,AUTOMATED,WEEK 4,28,2025-08-11,28
NCSTUDY01,LB,NCSTUDY01-ANIMAL0017,23,GLUC,Glucose,128.1,mg/dL,128.1,128.1,mg/dL,70.0,150.0,N,,,N,CENTRAL LAB,BLOOD,AUTOMATED,WEEK 4,28,2025-08-11,28
NCSTUDY01,LB,NCSTUDY01-ANIMAL0017,24,CREAT,Creatinine,0.3,mg/dL,0.3,0.3,mg/dL,0.2,0.6,N,,,N,CENTRAL LAB,BLOOD,AUTOMATED,WEEK 4,28,2025-08-11,28
NCSTUDY01,LB,NCSTUDY01-ANIMAL0018,1,HGB,Hemoglobin,17.8,g/dL,17.8,17.8,g/dL,12.0,18.0,N,,,Y,CENTRAL LAB,BLOOD,AUTOMATED,PRE-DOSE,0,2025-08-13,0
NCSTUDY01,LB,NCSTUDY01-ANIMAL0018,2,RBC,Red Blood Cell Count,8.9,10^6/µL,8.9,8.9,10^6/µL,6.0,10.0,N,,,Y,CENTRAL LAB,BLOOD,AUTOMATED,PRE-DOSE,0,2025-08-13,0
NCSTUDY01,LB,NCSTUDY01-ANIMAL0018,3,WBC,White Blood Cell Count,15.1,10^3/µL,15.1,15.1,10^3/µL,5.0,15.0,H,,,Y,CENTRAL LAB,BLOOD,AUTOMATED,PRE-DOSE,0,2025-08-13,0
NCSTUDY01,LB,NCSTUDY01-ANIMAL0018,4,PLT,Platelet Count,1147.0,10^3/µL,1147.0,1147.0,10^3/µL,500.0,1300.0,N,,,Y,CENTRAL LAB,BLOOD,AUTOMATED,PRE-DOSE,0,2025-08-13,0
NCSTUDY01,LB,NCSTUDY01-ANIMAL0018,5,ALT,Alanine Aminotransferase,71.2,U/L,71.2,71.2,U/L,20.0,90.0,N,,,Y,CENTRAL LAB,BLOOD,AUTOMATED,PRE-DOSE,0,2025-08-13,0
NCSTUDY01,LB,NCSTUDY01-ANIMAL0018,6,AST,Aspartate Aminotransferase,77.8,U/L,77.8,77.8,U/L,40.0,120.0,N,,,Y,CENTRAL LAB,BLOOD,AUTOMATED,PRE-DOSE,0,2025-08-13,0
NCSTUDY01,LB,NCSTUDY01-ANIMAL0018,7,GLUC,Glucose,73.7,mg/dL,73.7,73.7,mg/dL,70.0,150.0,N,,,Y,CENTRAL LAB,BLOOD,AUTOMATED,PRE-DOSE,0,2025-08-13,0
NCSTUDY01,LB,NCSTUDY01-ANIMAL0018,8,CREAT,Creatinine,0.3,mg/dL,0.3,0.3,mg/dL,0.2,0.6,N,,,Y,CENTRAL LAB,BLOOD,AUTOMATED,PRE-DOSE,0,2025-08-13,0
NCSTUDY01,LB,NCSTUDY01-ANIMAL0018,9,HGB,Hemoglobin,16.4,g/dL,16.4,16.4,g/dL,12.0,18.0,N,,,N,CENTRAL LAB,BLOOD,AUTOMATED,WEEK 2,14,2025-08-27,14
NCSTUDY01,LB,NCSTUDY01-ANIMAL0018,10,RBC,Red Blood Cell Count,10.4,10^6/µL,10.4,10.4,10^6/µL,6.0,10.0,H,,,N,CENTRAL LAB,BLOOD,AUTOMATED,WEEK 2,14,2025-08-27,14
NCSTUDY01,LB,NCSTUDY01-ANIMAL0018,11,WBC,White Blood Cell Count,15.8,10^3/µL,15.8,15.8,10^3/µL,5.0,15.0,H,,,N,CENTRAL LAB,BLOOD,AUTOMATED,WEEK 2,14,2025-08-27,14
NCSTUDY01,LB,NCSTUDY01-ANIMAL0018,12,PLT,Platelet Count,1168.8,10^3/µL,1168.8,1168.8,10^3/µL,500.0,1300.0,N,,,N,CENTRAL LAB,BLOOD,AUTOMATED,WEEK 2,14,2025-08-27,14
NCSTUDY01,LB,NCSTUDY01-ANIMAL0018,13,ALT,Alanine Aminotransferase,65.9,U/L,65.9,65.9,U/L,20.0,90.0,N,,,N,CENTRAL LAB,BLOOD,AUTOMATED,WEEK 2,14,2025-08-27,14
NCSTUDY01,LB,NCSTUDY01-ANIMAL0018,14,AST,Aspartate Aminotransferase,73.8,U/L,73.8,73.8,U/L,40.0,120.0,N,,,N,CENTRAL LAB,BLOOD,AUTOMATED,WEEK 2,14,2025-08-27,14
NCSTUDY01,LB,NCSTUDY01-ANIMAL0018,15,GLUC,Glucose,75.4,mg/dL,75.4,75.4,mg/dL,70.0,150.0,N,,,N,CENTRAL LAB,BLOOD,AUTOMATED,WEEK 2,14,2025-08-27,14
NCSTUDY01,LB,NCSTUDY01-ANIMAL0018,16,CREAT,Creatinine,0.3,mg/dL,0.3,0.3,mg/dL,0.2,0.6,N,,,N,CENTRAL LAB,BLOOD,AUTOMATED,WEEK 2,14,2025-08-27,14
NCSTUDY01,LB,NCSTUDY01-ANIMAL0018,17,HGB,Hemoglobin,17.4,g/dL,17.4,17.4,g/dL,12.0,18.0,N,,,N,CENTRAL LAB,BLOOD,AUTOMATED,WEEK 4,28,2025-09-10,28
NCSTUDY01,LB,NCSTUDY01-ANIMAL0018,18,RBC,Red Blood Cell Count,10.9,10^6/µL,10.9,10.9,10^6/µL,6.0,10.0,H,,,N,CENTRAL LAB,BLOOD,AUTOMATED,WEEK 4,28,2025-09-10,28
NCSTUDY01,LB,NCSTUDY01-ANIMAL0018,19,WBC,White Blood Cell Count,16.4,10^3/µL,16.4,16.4,10^3/µL,5.0,15.0,H,,,N,CENTRAL LAB,BLOOD,AUTOMATED,WEEK 4,28,2025-09-10,28
NCSTUDY01,LB,NCSTUDY01-ANIMAL0018,20,PLT,Platelet Count,1034.0,10^3/µL,1034.0,1034.0,10^3/µL,500.0,1300.0,N,,,N,CENTRAL LAB,BLOOD,AUTOMATED,WEEK 4,28,2025-09-10,28
NCSTUDY01,LB,NCSTUDY01-ANIMAL0018,21,ALT,Alanine Aminotransferase,65.0,U/L,65.0,65.0,U/L,20.0,90.0,N,,,N,CENTRAL LAB,BLOOD,AUTOMATED,WEEK 4,28,2025-09-10,28
NCSTUDY01,LB,NCSTUDY01-ANIMAL0018,22,AST,Aspartate Aminotransferase,88.0,U/L,88.0,88.0,U/L,40.0,120.0,N,,,N,CENTRAL LAB,BLOOD,AUTOMATED,WEEK 4,28,2025-09-10,28
NCSTUDY01,LB,NCSTUDY01-ANIMAL0018,23,GLUC,Glucose,74.9,mg/dL,74.9,74.9,mg/dL,70.0,150.0,N,,,N,CENTRAL LAB,BLOOD,AUTOMATED,WEEK 4,28,2025-09-10,28
NCSTUDY01,LB,NCSTUDY01-ANIMAL0018,24,CREAT,Creatinine,0.2,mg/dL,0.2,0.2,mg/dL,0.2,0.6,N,,,N,CENTRAL LAB,BLOOD,AUTOMATED,WEEK 4,28,2025-09-10,28
NCSTUDY01,LB,NCSTUDY01-ANIMAL0019,1,HGB,Hemoglobin,13.1,g/dL,13.1,13.1,g/dL,12.0,18.0,N,,,Y,CENTRAL LAB,BLOOD,AUTOMATED,PRE-DOSE,0,2025-06-15,0
NCSTUDY01,LB,NCSTUDY01-ANIMAL0019,2,RBC,Red Blood Cell Count,6.3,10^6/µL,6.3,6.3,10^6/µL,6.0,10.0,N,,,Y,CENTRAL LAB,BLOOD,AUTOMATED,PRE-DOSE,0,2025-06-15,0
NCSTUDY01,LB,NCSTUDY01-ANIMAL0019,3,WBC,White Blood Cell Count,8.9,10^3/µL,8.9,8.9,10^3/µL,5.0,15.0,N,,,Y,CENTRAL LAB,BLOOD,AUTOMATED,PRE-DOSE,0,2025-06-15,0
NCSTUDY01,LB,NCSTUDY01-ANIMAL0019,4,PLT,Platelet Count,650.5,10^3/µL,650.5,650.5,10^3/µL,500.0,1300.0,N,,,Y,CENTRAL LAB,BLOOD,AUTOMATED,PRE-DOSE,0,2025-06-15,0
NCSTUDY01,LB,NCSTUDY01-ANIMAL0019,5,ALT,Alanine Aminotransferase,26.0,U/L,26.0,26.0,U/L,20.0,90.0,N,,,Y,CENTRAL LAB,BLOOD,AUTOMATED,PRE-DOSE,0,2025-06-15,0
NCSTUDY01,LB,NCSTUDY01-ANIMAL0019,6,AST,Aspartate Aminotransferase,105.3,U/L,105.3,105.3,U/L,40.0,120.0,N,,,Y,CENTRAL LAB,BLOOD,AUTOMATED,PRE-DOSE,0,2025-06-15,0
NCSTUDY01,LB,NCSTUDY01-ANIMAL0019,7,GLUC,Glucose,141.1,mg/dL,141.1,141.1,mg/dL,70.0,150.0,N,,,Y,CENTRAL LAB,BLOOD,AUTOMATED,PRE-DOSE,0,2025-06-15,0
NCSTUDY01,LB,NCSTUDY01-ANIMAL0019,8,CREAT,Creatinine,0.3,mg/dL,0.3,0.3,mg/dL,0.2,0.6,N,,,Y,CENTRAL LAB,BLOOD,AUTOMATED,PRE-DOSE,0,2025-06-15,0
NCSTUDY01,LB,NCSTUDY01-ANIMAL0019,9,HGB,Hemoglobin,12.5,g/dL,12.5,12.5,g/dL,12.0,18.0,N,,,N,CENTRAL LAB,BLOOD,AUTOMATED,WEEK 2,14,2025-06-29,14
NCSTUDY01,LB,NCSTUDY01-ANIMAL0019,10,RBC,Red Blood Cell Count,6.6,10^6/µL,6.6,6.6,10^6/µL,6.0,10.0,N,,,N,CENTRAL LAB,BLOOD,AUTOMATED,WEEK 2,14,2025-06-29,14
NCSTUDY01,LB,NCSTUDY01-ANIMAL0019,11,WBC,White Blood Cell Count,9.8,10^3/µL,9.8,9.8,10^3/µL,5.0,15.0,N,,,N,CENTRAL LAB,BLOOD,AUTOMATED,WEEK 2,14,2025-06-29,14
NCSTUDY01,LB,NCSTUDY01-ANIMAL0019,12,PLT,Platelet Count,727.5,10^3/µL,727.5,727.5,10^3/µL,500.0,1300.0,N,,,N,CENTRAL LAB,BLOOD,AUTOMATED,WEEK 2,14,2025-06-29,14
NCSTUDY01,LB,NCSTUDY01-ANIMAL0019,13,ALT,Alanine Aminotransferase,23.2,U/L,23.2,23.2,U/L,20.0,90.0,N,,,N,CENTRAL LAB,BLOOD,AUTOMATED,WEEK 2,14,2025-06-29,14
NCSTUDY01,LB,NCSTUDY01-ANIMAL0019,14,AST,Aspartate Aminotransferase,81.3,U/L,81.3,81.3,U/L,40.0,120.0,N,,,N,CENTRAL LAB,BLOOD,AUTOMATED,WEEK 2,14,2025-06-29,14
NCSTUDY01,LB,NCSTUDY01-ANIMAL0019,15,GLUC,Glucose,144.3,mg/dL,144.3,144.3,mg/dL,70.0,150.0,N,,,N,CENTRAL LAB,BLOOD,AUTOMATED,WEEK 2,14,2025-06-29,14
NCSTUDY01,LB,NCSTUDY01-ANIMAL0019,16,CREAT,Creatinine,0.3,mg/dL,0.3,0.3,mg/dL,0.2,0.6,N,,,N,CENTRAL LAB,BLOOD,AUTOMATED,WEEK 2,14,2025-06-29,14
NCSTUDY01,LB,NCSTUDY01-ANIMAL0019,17,HGB,Hemoglobin,15.0,g/dL,15.0,15.0,g/dL,12.0,18.0,N,,,N,CENTRAL LAB,BLOOD,AUTOMATED,WEEK 4,28,2025-07-13,28
NCSTUDY01,LB,NCSTUDY01-ANIMAL0019,18,RBC,Red Blood Cell Count,4.7,10^6/µL,4.7,4.7,10^6/µL,6.0,10.0,L,,,N,CENTRAL LAB,BLOOD,AUTOMATED,WEEK 4,28,2025-07-13,28
NCSTUDY01,LB,NCSTUDY01-ANIMAL0019,19,WBC,White Blood Cell Count,12.2,10^3/µL,12.2,12.2,10^3/µL,5.0,15.0,N,,,N,CENTRAL LAB,BLOOD,AUTOMATED,WEEK 4,28,2025-07-13,28
NCSTUDY01,LB,NCSTUDY01-ANIMAL0019,20,PLT,Platelet Count,661.5,10^3/µL,661.5,661.5,10^3/µL,500.0,1300.0,N,,,N,CENTRAL LAB,BLOOD,AUTOMATED,WEEK 4,28,2025-07-13,28
NCSTUDY01,LB,NCSTUDY01-ANIMAL0019,21,ALT,Alanine Aminotransferase,36.9,U/L,36.9,36.9,U/L,20.0,90.0,N,,,N,CENTRAL LAB,BLOOD,AUTOMATED,WEEK 4,28,2025-07-13,28
NCSTUDY01,LB,NCSTUDY01-ANIMAL0019,22,AST,Aspartate Aminotransferase,117.3,U/L,117.3,117.3,U/L,40.0,120.0,N,,,N,CENTRAL LAB,BLOOD,AUTOMATED,WEEK 4,28,2025-07-13,28
NCSTUDY01,LB,NCSTUDY01-ANIMAL0019,23,GLUC,Glucose,91.9,mg/dL,91.9,91.9,mg/dL,70.0,150.0,N,,,N,CENTRAL LAB,BLOOD,AUTOMATED,WEEK 4,28,2025-07-13,28
NCSTUDY01,LB,NCSTUDY01-ANIMAL0019,24,CREAT,Creatinine,0.3,mg/dL,0.3,0.3,mg/dL,0.2,0.6,N,,,N,CENTRAL LAB,BLOOD,AUTOMATED,WEEK 4,28,2025-07-13,28
NCSTUDY01,LB,NCSTUDY01-ANIMAL0020,1,HGB,Hemoglobin,13.5,g/dL,13.5,13.5,g/dL,12.0,18.0,N,,,Y,CENTRAL LAB,BLOOD,AUTOMATED,PRE-DOSE,0,2025-08-12,0
NCSTUDY01,LB,NCSTUDY01-ANIMAL0020,2,RBC,Red Blood Cell Count,6.2,10^6/µL,6.2,6.2,10^6/µL,6.0,10.0,N,,,Y,CENTRAL LAB,BLOOD,AUTOMATED,PRE-DOSE,0,2025-08-12,0
NCSTUDY01,LB,NCSTUDY01-ANIMAL0020,3,WBC,White Blood Cell Count,11.8,10^3/µL,11.8,11.8,10^3/µL,5.0,15.0,N,,,Y,CENTRAL LAB,BLOOD,AUTOMATED,PRE-DOSE,0,2025-08-12,0
NCSTUDY01,LB,NCSTUDY01-ANIMAL0020,4,PLT,Platelet Count,714.9,10^3/µL,714.9,714.9,10^3/µL,500.0,1300.0,N,,,Y,CENTRAL LAB,BLOOD,AUTOMATED,PRE-DOSE,0,2025-08-12,0
NCSTUDY01,LB,NCSTUDY01-ANIMAL0020,5,ALT,Alanine Aminotransferase,36.4,U/L,36.4,36.4,U/L,20.0,90.0,N,,,Y,CENTRAL LAB,BLOOD,AUTOMATED,PRE-DOSE,0,2025-08-12,0
NCSTUDY01,LB,NCSTUDY01-ANIMAL0020,6,AST,Aspartate Aminotransferase,85.3,U/L,85.3,85.3,U/L,40.0,120.0,N,,,Y,CENTRAL LAB,BLOOD,AUTOMATED,PRE-DOSE,0,2025-08-12,0
NCSTUDY01,LB,NCSTUDY01-ANIMAL0020,7,GLUC,Glucose,74.0,mg/dL,74.0,74.0,mg/dL,70.0,150.0,N,,,Y,CENTRAL LAB,BLOOD,AUTOMATED,PRE-DOSE,0,2025-08-12,0
NCSTUDY01,LB,NCSTUDY01-ANIMAL0020,8,CREAT,Creatinine,0.3,mg/dL,0.3,0.3,mg/dL,0.2,0.6,N,,,Y,CENTRAL LAB,BLOOD,AUTOMATED,PRE-DOSE,0,2025-08-12,0
NCSTUDY01,LB,NCSTUDY01-ANIMAL0020,9,HGB,Hemoglobin,14.5,g/dL,14.5,14.5,g/dL,12.0,18.0,N,,,N,CENTRAL LAB,BLOOD,AUTOMATED,WEEK 2,14,2025-08-26,14
NCSTUDY01,LB,NCSTUDY01-ANIMAL0020,10,RBC,Red Blood Cell Count,6.5,10^6/µL,6.5,6.5,10^6/µL,6.0,10.0,N,,,N,CENTRAL LAB,BLOOD,AUTOMATED,WEEK 2,14,2025-08-26,14
NCSTUDY01,LB,NCSTUDY01-ANIMAL0020,11,WBC,White Blood Cell Count,11.8,10^3/µL,11.8,11.8,10^3/µL,5.0,15.0,N,,,N,CENTRAL LAB,BLOOD,AUTOMATED,WEEK 2,14,2025-08-26,14
NCSTUDY01,LB,NCSTUDY01-ANIMAL0020,12,PLT,Platelet Count,671.6,10^3/µL,671.6,671.6,10^3/µL,500.0,1300.0,N,,,N,CENTRAL LAB,BLOOD,AUTOMATED,WEEK 2,14,2025-08-26,14
NCSTUDY01,LB,NCSTUDY01-ANIMAL0020,13,ALT,Alanine Aminotransferase,35.7,U/L,35.7,35.7,U/L,20.0,90.0,N,,,N,CENTRAL LAB,BLOOD,AUTOMATED,WEEK 2,14,2025-08-26,14
NCSTUDY01,LB,NCSTUDY01-ANIMAL0020,14,AST,Aspartate Aminotransferase,86.3,U/L,86.3,86.3,U/L,40.0,120.0,N,,,N,CENTRAL LAB,BLOOD,AUTOMATED,WEEK 2,14,2025-08-26,14
NCSTUDY01,LB,NCSTUDY01-ANIMAL0020,15,GLUC,Glucose,78.9,mg/dL,78.9,78.9,mg/dL,70.0,150.0,N,,,N,CENTRAL LAB,BLOOD,AUTOMATED,WEEK 2,14,2025-08-26,14
NCSTUDY01,LB,NCSTUDY01-ANIMAL0020,16,CREAT,Creatinine,0.3,mg/dL,0.3,0.3,mg/dL,0.2,0.6,N,,,N,CENTRAL LAB,BLOOD,AUTOMATED,WEEK 2,14,2025-08-26,14
NCSTUDY01,LB,NCSTUDY01-ANIMAL0020,17,HGB,Hemoglobin,14.7,g/dL,14.7,14.7,g/dL,12.0,18.0,N,,,N,CENTRAL LAB,BLOOD,AUTOMATED,WEEK 4,28,2025-09-09,28
NCSTUDY01,LB,NCSTUDY01-ANIMAL0020,18,RBC,Red Blood Cell Count,6.7,10^6/µL,6.7,6.7,10^6/µL,6.0,10.0,N,,,N,CENTRAL LAB,BLOOD,AUTOMATED,WEEK 4,28,2025-09-09,28
NCSTUDY01,LB,NCSTUDY01-ANIMAL0020,19,WBC,White Blood Cell Count,12.0,10^3/µL,12.0,12.0,10^3/µL,5.0,15.0,N,,,N,CENTRAL LAB,BLOOD,AUTOMATED,WEEK 4,28,2025-09-09,28
NCSTUDY01,LB,NCSTUDY01-ANIMAL0020,20,PLT,Platelet Count,718.3,10^3/µL,718.3,718.3,10^3/µL,500.0,1300.0,N,,,N,CENTRAL LAB,BLOOD,AUTOMATED,WEEK 4,28,2025-09-09,28
NCSTUDY01,LB,NCSTUDY01-ANIMAL0020,21,ALT,Alanine Aminotransferase,37.8,U/L,37.8,37.8,U/L,20.0,90.0,N,,,N,CENTRAL LAB,BLOOD,AUTOMATED,WEEK 4,28,2025-09-09,28
NCSTUDY01,LB,NCSTUDY01-ANIMAL0020,22,AST,Aspartate Aminotransferase,85.5,U/L,85.5,85.5,U/L,40.0,120.0,N,,,N,CENTRAL LAB,BLOOD,AUTOMATED,WEEK 4,28,2025-09-09,28
NCSTUDY01,LB,NCSTUDY01-ANIMAL0020,23,GLUC,Glucose,73.7,mg/dL,73.7,73.7,mg/dL,70.0,150.0,N,,,N,CENTRAL LAB,BLOOD,AUTOMATED,WEEK 4,28,2025-09-09,28
NCSTUDY01,LB,NCSTUDY01-ANIMAL0020,24,CREAT,Creatinine,0.3,mg/dL,0.3,0.3,mg/dL,0.2,0.6,N,,,N,CENTRAL LAB,BLOOD,AUTOMATED,WEEK 4,28,2025-09-09,28
NCSTUDY01,LB,NCSTUDY01-ANIMAL0021,1,HGB,Hemoglobin,12.1,g/dL,12.1,12.1,g/dL,12.0,18.0,N,,,Y,CENTRAL LAB,BLOOD,AUTOMATED,PRE-DOSE,0,2025-09-25,0
NCSTUDY01,LB,NCSTUDY01-ANIMAL0021,2,RBC,Red Blood Cell Count,7.7,10^6/µL,7.7,7.7,10^6/µL,6.0,10.0,N,,,Y,CENTRAL LAB,BLOOD,AUTOMATED,PRE-DOSE,0,2025-09-25,0
NCSTUDY01,LB,NCSTUDY01-ANIMAL0021,3,WBC,White Blood Cell Count,13.7,10^3/µL,13.7,13.7,10^3/µL,5.0,15.0,N,,,Y,CENTRAL LAB,BLOOD,AUTOMATED,PRE-DOSE,0,2025-09-25,0
NCSTUDY01,LB,NCSTUDY01-ANIMAL0021,4,PLT,Platelet Count,710.3,10^3/µL,710.3,710.3,10^3/µL,500.0,1300.0,N,,,Y,CENTRAL LAB,BLOOD,AUTOMATED,PRE-DOSE,0,2025-09-25,0
NCSTUDY01,LB,NCSTUDY01-ANIMAL0021,5,ALT,Alanine Aminotransferase,56.3,U/L,56.3,56.3,U/L,20.0,90.0,N,,,Y,CENTRAL LAB,BLOOD,AUTOMATED,PRE-DOSE,0,2025-09-25,0
NCSTUDY01,LB,NCSTUDY01-ANIMAL0021,6,AST,Aspartate Aminotransferase,51.1,U/L,51.1,51.1,U/L,40.0,120.0,N,,,Y,CENTRAL LAB,BLOOD,AUTOMATED,PRE-DOSE,0,2025-09-25,0
NCSTUDY01,LB,NCSTUDY01-ANIMAL0021,7,GLUC,Glucose,146.7,mg/dL,146.7,146.7,mg/dL,70.0,150.0,N,,,Y,CENTRAL LAB,BLOOD,AUTOMATED,PRE-DOSE,0,2025-09-25,0
NCSTUDY01,LB,NCSTUDY01-ANIMAL0021,8,CREAT,Creatinine,0.2,mg/dL,0.2,0.2,mg/dL,0.2,0.6,N,,,Y,CENTRAL LAB,BLOOD,AUTOMATED,PRE-DOSE,0,2025-09-25,0
NCSTUDY01,LB,NCSTUDY01-ANIMAL0021,9,HGB,Hemoglobin,12.7,g/dL,12.7,12.7,g/dL,12.0,18.0,N,,,N,CENTRAL LAB,BLOOD,AUTOMATED,WEEK 2,14,2025-10-09,14
NCSTUDY01,LB,NCSTUDY01-ANIMAL0021,10,RBC,Red Blood Cell Count,7.7,10^6/µL,7.7,7.7,10^6/µL,6.0,10.0,N,,,N,CENTRAL LAB,BLOOD,AUTOMATED,WEEK 2,14,2025-10-09,14
NCSTUDY01,LB,NCSTUDY01-ANIMAL0021,11,WBC,White Blood Cell Count,13.6,10^3/µL,13.6,13.6,10^3/µL,5.0,15.0,N,,,N,CENTRAL LAB,BLOOD,AUTOMATED,WEEK 2,14,2025-10-09,14
NCSTUDY01,LB,NCSTUDY01-ANIMAL0021,12,PLT,Platelet Count,752.5,10^3/µL,752.5,752.5,10^3/µL,500.0,1300.0,N,,,N,CENTRAL LAB,BLOOD,AUTOMATED,WEEK 2,14,2025-10-09,14
NCSTUDY01,LB,NCSTUDY01-ANIMAL0021,13,ALT,Alanine Aminotransferase,56.6,U/L,56.6,56.6,U/L,20.0,90.0,N,,,N,CENTRAL LAB,BLOOD,AUTOMATED,WEEK 2,14,2025-10-09,14
NCSTUDY01,LB,NCSTUDY01-ANIMAL0021,14,AST,Aspartate Aminotransferase,51.4,U/L,51.4,51.4,U/L,40.0,120.0,N,,,N,CENTRAL LAB,BLOOD,AUTOMATED,WEEK 2,14,2025-10-09,14
NCSTUDY01,LB,NCSTUDY01-ANIMAL0021,15,GLUC,Glucose,140.9,mg/dL,140.9,140.9,mg/dL,70.0,150.0,N,,,N,CENTRAL LAB,BLOOD,AUTOMATED,WEEK 2,14,2025-10-09,14
NCSTUDY01,LB,NCSTUDY01-ANIMAL0021,16,CREAT,Creatinine,0.2,mg/dL,0.2,0.2,mg/dL,0.2,0.6,L,,,N,CENTRAL LAB,BLOOD,AUTOMATED,WEEK 2,14,2025-10-09,14
NCSTUDY01,LB,NCSTUDY01-ANIMAL0021,17,HGB,Hemoglobin,13.0,g/dL,13.0,13.0,g/dL,12.0,18.0,N,,,N,CENTRAL LAB,BLOOD,AUTOMATED,WEEK 4,28,2025-10-23,28
NCSTUDY01,LB,NCSTUDY01-ANIMAL0021,18,RBC,Red Blood Cell Count,7.6,10^6/µL,7.6,7.6,10^6/µL,6.0,10.0,N,,,N,CENTRAL LAB,BLOOD,AUTOMATED,WEEK 4,28,2025-10-23,28
NCSTUDY01,LB,NCSTUDY01-ANIMAL0021,19,WBC,White Blood Cell Count,13.9,10^3/µL,13.9,13.9,10^3/µL,5.0,15.0,N,,,N,CENTRAL LAB,BLOOD,AUTOMATED,WEEK 4,28,2025-10-23,28
NCSTUDY01,LB,NCSTUDY01-ANIMAL0021,20,PLT,Platelet Count,714.5,10^3/µL,714.5,714.5,10^3/µL,500.0,1300.0,N,,,N,CENTRAL LAB,BLOOD,AUTOMATED,WEEK 4,28,2025-10-23,28
NCSTUDY01,LB,NCSTUDY01-ANIMAL0021,21,ALT,Alanine Aminotransferase,56.6,U/L,56.6,56.6,U/L,20.0,90.0,N,,,N,CENTRAL LAB,BLOOD,AUTOMATED,WEEK 4,28,2025-10-23,28
NCSTUDY01,LB,NCSTUDY01-ANIMAL0021,22,AST,Aspartate Aminotransferase,51.4,U/L,51.4,51.4,U/L,40.0,120.0,N,,,N,CENTRAL LAB,BLOOD,AUTOMATED,WEEK 4,28,2025-10-23,28
NCSTUDY01,LB,NCSTUDY01-ANIMAL0021,23,GLUC,Glucose,136.9,mg/dL,136.9,136.9,mg/dL,70.0,150.0,N,,,N,CENTRAL LAB,BLOOD,AUTOMATED,WEEK 4,28,2025-10-23,28
NCSTUDY01,LB,NCSTUDY01-ANIMAL0021,24,CREAT,Creatinine,0.2,mg/dL,0.2,0.2,mg/dL,0.2,0.6,N,,,N,CENTRAL LAB,BLOOD,AUTOMATED,WEEK 4,28,2025-10-23,28
NCSTUDY01,LB,NCSTUDY01-ANIMAL0022,1,HGB,Hemoglobin,17.4,g/dL,17.4,17.4,g/dL,12.0,18.0,N,,,Y,CENTRAL LAB,BLOOD,AUTOMATED,PRE-DOSE,0,2025-06-18,0
NCSTUDY01,LB,NCSTUDY01-ANIMAL0022,2,RBC,Red Blood Cell Count,8.4,10^6/µL,8.4,8.4,10^6/µL,6.0,10.0,N,,,Y,CENTRAL LAB,BLOOD,AUTOMATED,PRE-DOSE,0,2025-06-18,0
NCSTUDY01,LB,NCSTUDY01-ANIMAL0022,3,WBC,White Blood Cell Count,10.3,10^3/µL,10.3,10.3,10^3/µL,5.0,15.0,N,,,Y,CENTRAL LAB,BLOOD,AUTOMATED,PRE-DOSE,0,2025-06-18,0
NCSTUDY01,LB,NCSTUDY01-ANIMAL0022,4,PLT,Platelet Count,560.7,10^3/µL,560.7,560.7,10^3/µL,500.0,1300.0,N,,,Y,CENTRAL LAB,BLOOD,AUTOMATED,PRE-DOSE,0,2025-06-18,0
NCSTUDY01,LB,NCSTUDY01-ANIMAL0022,5,ALT,Alanine Aminotransferase,29.8,U/L,29.8,29.8,U/L,20.0,90.0,N,,,Y,CENTRAL LAB,BLOOD,AUTOMATED,PRE-DOSE,0,2025-06-18,0
NCSTUDY01,LB,NCSTUDY01-ANIMAL0022,6,AST,Aspartate Aminotransferase,83.4,U/L,83.4,83.4,U/L,40.0,120.0,N,,,Y,CENTRAL LAB,BLOOD,AUTOMATED,PRE-DOSE,0,2025-06-18,0
NCSTUDY01,LB,NCSTUDY01-ANIMAL0022,7,GLUC,Glucose,137.6,mg/dL,137.6,137.6,mg/dL,70.0,150.0,N,,,Y,CENTRAL LAB,BLOOD,AUTOMATED,PRE-DOSE,0,2025-06-18,0
NCSTUDY01,LB,NCSTUDY01-ANIMAL0022,8,CREAT,Creatinine,0.2,mg/dL,0.2,0.2,mg/dL,0.2,0.6,N,,,Y,CENTRAL LAB,BLOOD,AUTOMATED,PRE-DOSE,0,2025-06-18,0
NCSTUDY01,LB,NCSTUDY01-ANIMAL0022,9,HGB,Hemoglobin,17.7,g/dL,17.7,17.7,g/dL,12.0,18.0,N,,,N,CENTRAL LAB,BLOOD,AUTOMATED,WEEK 2,14,2025-07-02,14
NCSTUDY01,LB,NCSTUDY01-ANIMAL0022,10,RBC,Red Blood Cell Count,8.3,10^6/µL,8.3,8.3,10^6/µL,6.0,10.0,N,,,N,CENTRAL LAB,BLOOD,AUTOMATED,WEEK 2,14,2025-07-02,14
NCSTUDY01,LB,NCSTUDY01-ANIMAL0022,11,WBC,White Blood Cell Count,9.8,10^3/µL,9.8,9.8,10^3/µL,5.0,15.0,N,,,N,CENTRAL LAB,BLOOD,AUTOMATED,WEEK 2,14,2025-07-02,14
NCSTUDY01,LB,NCSTUDY01-ANIMAL0022,12,PLT,Platelet Count,547.5,10^3/µL,547.5,547.5,10^3/µL,500.0,1300.0,N,,,N,CENTRAL LAB,BLOOD,AUTOMATED,WEEK 2,14,2025-07-02,14
NCSTUDY01,LB,NCSTUDY01-ANIMAL0022,13,ALT,Alanine Aminotransferase,29.0,U/L,29.0,29.0,U/L,20.0,90.0,N,,,N,CENTRAL LAB,BLOOD,AUTOMATED,WEEK 2,14,2025-07-02,14
NCSTUDY01,LB,NCSTUDY01-ANIMAL0022,14,AST,Aspartate Aminotransferase,80.0,U/L,80.0,80.0,U/L,40.0,120.0,N,,,N,CENTRAL LAB,BLOOD,AUTOMATED,WEEK 2,14,2025-07-02,14
NCSTUDY01,LB,NCSTUDY01-ANIMAL0022,15,GLUC,Glucose,135.5,mg/dL,135.5,135.5,mg/dL,70.0,150.0,N,,,N,CENTRAL LAB,BLOOD,AUTOMATED,WEEK 2,14,2025-07-02,14
NCSTUDY01,LB,NCSTUDY01-ANIMAL0022,16,CREAT,Creatinine,0.2,mg/dL,0.2,0.2,mg/dL,0.2,0.6,N,,,N,CENTRAL LAB,BLOOD,AUTOMATED,WEEK 2,14,2025-07-02,14
NCSTUDY01,LB,NCSTUDY01-ANIMAL0022,17,HGB,Hemoglobin,17.5,g/dL,17.5,17.5,g/dL,12.0,18.0,N,,,N,CENTRAL LAB,BLOOD,AUTOMATED,WEEK 4,28,2025-07-16,28
NCSTUDY01,LB,NCSTUDY01-ANIMAL0022,18,RBC,Red Blood Cell Count,7.9,10^6/µL,7.9,7.9,10^6/µL,6.0,10.0,N,,,N,CENTRAL LAB,BLOOD,AUTOMATED,WEEK 4,28,2025-07-16,28
NCSTUDY01,LB,NCSTUDY01-ANIMAL0022,19,WBC,White Blood Cell Count,10.4,10^3/µL,10.4,10.4,10^3/µL,5.0,15.0,N,,,N,CENTRAL LAB,BLOOD,AUTOMATED,WEEK 4,28,2025-07-16,28
NCSTUDY01,LB,NCSTUDY01-ANIMAL0022,20,PLT,Platelet Count,560.2,10^3/µL,560.2,560.2,10^3/µL,500.0,1300.0,N,,,N,CENTRAL LAB,BLOOD,AUTOMATED,WEEK 4,28,2025-07-16,28
NCSTUDY01,LB,NCSTUDY01-ANIMAL0022,21,ALT,Alanine Aminotransferase,29.1,U/L,29.1,29.1,U/L,20.0,90.0,N,,,N,CENTRAL LAB,BLOOD,AUTOMATED,WEEK 4,28,2025-07-16,28
NCSTUDY01,LB,NCSTUDY01-ANIMAL0022,22,AST,Aspartate Aminotransferase,83.7,U/L,83.7,83.7,U/L,40.0,120.0,N,,,N,CENTRAL LAB,BLOOD,AUTOMATED,WEEK 4,28,2025-07-16,28
NCSTUDY01,LB,NCSTUDY01-ANIMAL0022,23,GLUC,Glucose,139.4,mg/dL,139.4,139.4,mg/dL,70.0,150.0,N,,,N,CENTRAL LAB,BLOOD,AUTOMATED,WEEK 4,28,2025-07-16,28
NCSTUDY01,LB,NCSTUDY01-ANIMAL0022,24,CREAT,Creatinine,0.2,mg/dL,0.2,0.2,mg/dL,0.2,0.6,N,,,N,CENTRAL LAB,BLOOD,AUTOMATED,WEEK 4,28,2025-07-16,28
NCSTUDY01,LB,NCSTUDY01-ANIMAL0023,1,HGB,Hemoglobin,16.4,g/dL,16.4,16.4,g/dL,12.0,18.0,N,,,Y,CENTRAL LAB,BLOOD,AUTOMATED,PRE-DOSE,0,2025-08-08,0
NCSTUDY01,LB,NCSTUDY01-ANIMAL0023,2,RBC,Red Blood Cell Count,9.0,10^6/µL,9.0,9.0,10^6/µL,6.0,10.0,N,,,Y,CENTRAL LAB,BLOOD,AUTOMATED,PRE-DOSE,0,2025-08-08,0
NCSTUDY01,LB,NCSTUDY01-ANIMAL0023,3,WBC,White Blood Cell Count,10.4,10^3/µL,10.4,10.4,10^3/µL,5.0,15.0,N,,,Y,CENTRAL LAB,BLOOD,AUTOMATED,PRE-DOSE,0,2025-08-08,0
NCSTUDY01,LB,NCSTUDY01-ANIMAL0023,4,PLT,Platelet Count,1252.7,10^3/µL,1252.7,1252.7,10^3/µL,500.0,1300.0,N,,,Y,CENTRAL LAB,BLOOD,AUTOMATED,PRE-DOSE,0,2025-08-08,0
NCSTUDY01,LB,NCSTUDY01-ANIMAL0023,5,ALT,Alanine Aminotransferase,42.3,U/L,42.3,42.3,U/L,20.0,90.0,N,,,Y,CENTRAL LAB,BLOOD,AUTOMATED,PRE-DOSE,0,2025-08-08,0
NCSTUDY01,LB,NCSTUDY01-ANIMAL0023,6,AST,Aspartate Aminotransferase,49.2,U/L,49.2,49.2,U/L,40.0,120.0,N,,,Y,CENTRAL LAB,BLOOD,AUTOMATED,PRE-DOSE,0,2025-08-08,0
NCSTUDY01,LB,NCSTUDY01-ANIMAL0023,7,GLUC,Glucose,122.5,mg/dL,122.5,122.5,mg/dL,70.0,150.0,N,,,Y,CENTRAL LAB,BLOOD,AUTOMATED,PRE-DOSE,0,2025-08-08,0
NCSTUDY01,LB,NCSTUDY01-ANIMAL0023,8,CREAT,Creatinine,0.3,mg/dL,0.3,0.3,mg/dL,0.2,0.6,N,,,Y,CENTRAL LAB,BLOOD,AUTOMATED,PRE-DOSE,0,2025-08-08,0
NCSTUDY01,LB,NCSTUDY01-ANIMAL0023,9,HGB,Hemoglobin,19.8,g/dL,19.8,19.8,g/dL,12.0,18.0,H,,,N,CENTRAL LAB,BLOOD,AUTOMATED,WEEK 2,14,2025-08-22,14
NCSTUDY01,LB,NCSTUDY01-ANIMAL0023,10,RBC,Red Blood Cell Count,7.4,10^6/µL,7.4,7.4,10^6/µL,6.0,10.0,N,,,N,CENTRAL LAB,BLOOD,AUTOMATED,WEEK 2,14,2025-08-22,14
NCSTUDY01,LB,NCSTUDY01-ANIMAL0023,11,WBC,White Blood Cell Count,12.6,10^3/µL,12.6,12.6,10^3/µL,5.0,15.0,N,,,N,CENTRAL LAB,BLOOD,AUTOMATED,WEEK 2,14,2025-08-22,14
NCSTUDY01,LB,NCSTUDY01-ANIMAL0023,12,PLT,Platelet Count,1316.4,10^3/µL,1316.4,1316.4,10^3/µL,500.0,1300.0,H,,,N,CENTRAL LAB,BLOOD,AUTOMATED,WEEK 2,14,2025-08-22,14
NCSTUDY01,LB,NCSTUDY01-ANIMAL0023,13,ALT,Alanine Aminotransferase,45.5,U/L,45.5,45.5,U/L,20.0,90.0,N,,,N,CENTRAL LAB,BLOOD,AUTOMATED,WEEK 2,14,2025-08-22,14
NCSTUDY01,LB,NCSTUDY01-ANIMAL0023,14,AST,Aspartate Aminotransferase,51.3,U/L,51.3,51.3,U/L,40.0,120.0,N,,,N,CENTRAL LAB,BLOOD,AUTOMATED,WEEK 2,14,2025-08-22,14
NCSTUDY01,LB,NCSTUDY01-ANIMAL0023,15,GLUC,Glucose,117.9,mg/dL,117.9,117.9,mg/dL,70.0,150.0,N,,,N,CENTRAL LAB,BLOOD,AUTOMATED,WEEK 2,14,2025-08-22,14
NCSTUDY01,LB,NCSTUDY01-ANIMAL0023,16,CREAT,Creatinine,0.3,mg/dL,0.3,0.3,mg/dL,0.2,0.6,N,,,N,CENTRAL LAB,BLOOD,AUTOMATED,WEEK 2,14,2025-08-22,14
NCSTUDY01,LB,NCSTUDY01-ANIMAL0023,17,HGB,Hemoglobin,10.8,g/dL,10.8,10.8,g/dL,12.0,18.0,L,,,N,CENTRAL LAB,BLOOD,AUTOMATED,WEEK 4,28,2025-09-05,28
NCSTUDY01,LB,NCSTUDY01-ANIMAL0023,18,RBC,Red Blood Cell Count,8.9,10^6/µL,8.9,8.9,10^6/µL,6.0,10.0,N,,,N,CENTRAL LAB,BLOOD,AUTOMATED,WEEK 4,28,2025-09-05,28
NCSTUDY01,LB,NCSTUDY01-ANIMAL0023,19,WBC,White Blood Cell Count,9.4,10^3/µL,9.4,9.4,10^3/µL,5.0,15.0,N,,,N,CENTRAL LAB,BLOOD,AUTOMATED,WEEK 4,28,2025-09-05,28
NCSTUDY01,LB,NCSTUDY01-ANIMAL0023,20,PLT,Platelet Count,981.2,10^3/µL,981.2,981.2,10^3/µL,500.0,1300.0,N,,,N,CENTRAL LAB,BLOOD,AUTOMATED,WEEK 4,28,2025-09-05,28
NCSTUDY01,LB,NCSTUDY01-ANIMAL0023,21,ALT,Alanine Aminotransferase,33.7,U/L,33.7,33.7,U/L,20.0,90.0,N,,,N,CENTRAL LAB,BLOOD,AUTOMATED,WEEK 4,28,2025-09-05,28
NCSTUDY01,LB,NCSTUDY01-ANIMAL0023,22,AST,Aspartate Aminotransferase,58.5,U/L,58.5,58.5,U/L,40.0,120.0,N,,,N,CENTRAL LAB,BLOOD,AUTOMATED,WEEK 4,28,2025-09-05,28
NCSTUDY01,LB,NCSTUDY01-ANIMAL0023,23,GLUC,Glucose,147.3,mg/dL,147.3,147.3,mg/dL,70.0,150.0,N,,,N,CENTRAL LAB,BLOOD,AUTOMATED,WEEK 4,28,2025-09-05,28
NCSTUDY01,LB,NCSTUDY01-ANIMAL0023,24,CREAT,Creatinine,0.4,mg/dL,0.4,0.4,mg/dL,0.2,0.6,N,,,N,CENTRAL LAB,BLOOD,AUTOMATED,WEEK 4,28,2025-09-05,28
NCSTUDY01,LB,NCSTUDY01-ANIMAL0024,1,HGB,Hemoglobin,17.3,g/dL,17.3,17.3,g/dL,12.0,18.0,N,,,Y,CENTRAL LAB,BLOOD,AUTOMATED,PRE-DOSE,0,2025-10-16,0
NCSTUDY01,LB,NCSTUDY01-ANIMAL0024,2,RBC,Red Blood Cell Count,8.5,10^6/µL,8.5,8.5,10^6/µL,6.0,10.0,N,,,Y,CENTRAL LAB,BLOOD,AUTOMATED,PRE-DOSE,0,2025-10-16,0
NCSTUDY01,LB,NCSTUDY01-ANIMAL0024,3,WBC,White Blood Cell Count,13.3,10^3/µL,13.3,13.3,10^3/µL,5.0,15.0,N,,,Y,CENTRAL LAB,BLOOD,AUTOMATED,PRE-DOSE,0,2025-10-16,0
NCSTUDY01,LB,NCSTUDY01-ANIMAL0024,4,PLT,Platelet Count,1274.5,10^3/µL,1274.5,1274.5,10^3/µL,500.0,1300.0,N,,,Y,CENTRAL LAB,BLOOD,AUTOMATED,PRE-DOSE,0,2025-10-16,0
NCSTUDY01,LB,NCSTUDY01-ANIMAL0024,5,ALT,Alanine Aminotransferase,58.4,U/L,58.4,58.4,U/L,20.0,90.0,N,,,Y,CENTRAL LAB,BLOOD,AUTOMATED,PRE-DOSE,0,2025-10-16,0
NCSTUDY01,LB,NCSTUDY01-ANIMAL0024,6,AST,Aspartate Aminotransferase,114.4,U/L,114.4,114.4,U/L,40.0,120.0,N,,,Y,CENTRAL LAB,BLOOD,AUTOMATED,PRE-DOSE,0,2025-10-16,0
NCSTUDY01,LB,NCSTUDY01-ANIMAL0024,7,GLUC,Glucose,142.2,mg/dL,142.2,142.2,mg/dL,70.0,150.0,N,,,Y,CENTRAL LAB,BLOOD,AUTOMATED,PRE-DOSE,0,2025-10-16,0
NCSTUDY01,LB,NCSTUDY01-ANIMAL0024,8,CREAT,Creatinine,0.4,mg/dL,0.4,0.4,mg/dL,0.2,0.6,N,,,Y,CENTRAL LAB,BLOOD,AUTOMATED,PRE-DOSE,0,2025-10-16,0
NCSTUDY01,LB,NCSTUDY01-ANIMAL0024,9,HGB,Hemoglobin,17.1,g/dL,17.1,17.1,g/dL,12.0,18.0,N,,,N,CENTRAL LAB,BLOOD,AUTOMATED,WEEK 2,14,2025-10-30,14
NCSTUDY01,LB,NCSTUDY01-ANIMAL0024,10,RBC,Red Blood Cell Count,7.9,10^6/µL,7.9,7.9,10^6/µL,6.0,10.0,N,,,N,CENTRAL LAB,BLOOD,AUTOMATED,WEEK 2,14,2025-10-30,14
NCSTUDY01,LB,NCSTUDY01-ANIMAL0024,11,WBC,White Blood Cell Count,14.6,10^3/µL,14.6,14.6,10^3/µL,5.0,15.0,N,,,N,CENTRAL LAB,BLOOD,AUTOMATED,WEEK 2,14,2025-10-30,14
NCSTUDY01,LB,NCSTUDY01-ANIMAL0024,12,PLT,Platelet Count,1340.3,10^3/µL,1340.3,1340.3,10^3/µL,500.0,1300.0,H,,,N,CENTRAL LAB,BLOOD,AUTOMATED,WEEK 2,14,2025-10-30,14
NCSTUDY01,LB,NCSTUDY01-ANIMAL0024,13,ALT,Alanine Aminotransferase,56.7,U/L,56.7,56.7,U/L,20.0,90.0,N,,,N,CENTRAL LAB,BLOOD,AUTOMATED,WEEK 2,14,2025-10-30,14
NCSTUDY01,LB,NCSTUDY01-ANIMAL0024,14,AST,Aspartate Aminotransferase,114.5,U/L,114.5,114.5,U/L,40.0,120.0,N,,,N,CENTRAL LAB,BLOOD,AUTOMATED,WEEK 2,14,2025-10-30,14
NCSTUDY01,LB,NCSTUDY01-ANIMAL0024,15,GLUC,Glucose,151.2,mg/dL,151.2,151.2,mg/dL,70.0,150.0,H,,,N,CENTRAL LAB,BLOOD,AUTOMATED,WEEK 2,14,2025-10-30,14
NCSTUDY01,LB,NCSTUDY01-ANIMAL0024,16,CREAT,Creatinine,0.4,mg/dL,0.4,0.4,mg/dL,0.2,0.6,N,,,N,CENTRAL LAB,BLOOD,AUTOMATED,WEEK 2,14,2025-10-30,14
NCSTUDY01,LB,NCSTUDY01-ANIMAL0024,17,HGB,Hemoglobin,18.9,g/dL,18.9,18.9,g/dL,12.0,18.0,H,,,N,CENTRAL LAB,BLOOD,AUTOMATED,WEEK 4,28,2025-11-13,28
NCSTUDY01,LB,NCSTUDY01-ANIMAL0024,18,RBC,Red Blood Cell Count,8.0,10^6/µL,8.0,8.0,10^6/µL,6.0,10.0,N,,,N,CENTRAL LAB,BLOOD,AUTOMATED,WEEK 4,28,2025-11-13,28
NCSTUDY01,LB,NCSTUDY01-ANIMAL0024,19,WBC,White Blood Cell Count,13.9,10^3/µL,13.9,13.9,10^3/µL,5.0,15.0,N,,,N,CENTRAL LAB,BLOOD,AUTOMATED,WEEK 4,28,2025-11-13,28
NCSTUDY01,LB,NCSTUDY01-ANIMAL0024,20,PLT,Platelet Count,1140.9,10^3/µL,1140.9,1140.9,10^3/µL,500.0,1300.0,N,,,N,CENTRAL LAB,BLOOD,AUTOMATED,WEEK 4,28,2025-11-13,28
NCSTUDY01,LB,NCSTUDY01-ANIMAL0024,21,ALT,Alanine Aminotransferase,51.5,U/L,51.5,51.5,U/L,20.0,90.0,N,,,N,CENTRAL LAB,BLOOD,AUTOMATED,WEEK 4,28,2025-11-13,28
NCSTUDY01,LB,NCSTUDY01-ANIMAL0024,22,AST,Aspartate Aminotransferase,134.5,U/L,134.5,134.5,U/L,40.0,120.0,H,,,N,CENTRAL LAB,BLOOD,AUTOMATED,WEEK 4,28,2025-11-13,28
NCSTUDY01,LB,NCSTUDY01-ANIMAL0024,23,GLUC,Glucose,135.8,mg/dL,135.8,135.8,mg/dL,70.0,150.0,N,,,N,CENTRAL LAB,BLOOD,AUTOMATED,WEEK 4,28,2025-11-13,28
NCSTUDY01,LB,NCSTUDY01-ANIMAL0024,24,CREAT,Creatinine,0.5,mg/dL,0.5,0.5,mg/dL,0.2,0.6,N,,,N,CENTRAL LAB,BLOOD,AUTOMATED,WEEK 4,28,2025-11-13,28
NCSTUDY01,LB,NCSTUDY01-ANIMAL0025,1,HGB,Hemoglobin,17.3,g/dL,17.3,17.3,g/dL,12.0,18.0,N,,,Y,CENTRAL LAB,BLOOD,AUTOMATED,PRE-DOSE,0,2025-08-11,0
NCSTUDY01,LB,NCSTUDY01-ANIMAL0025,2,RBC,Red Blood Cell Count,6.8,10^6/µL,6.8,6.8,10^6/µL,6.0,10.0,N,,,Y,CENTRAL LAB,BLOOD,AUTOMATED,PRE-DOSE,0,2025-08-11,0
NCSTUDY01,LB,NCSTUDY01-ANIMAL0025,3,WBC,White Blood Cell Count,8.8,10^3/µL,8.8,8.8,10^3/µL,5.0,15.0,N,,,Y,CENTRAL LAB,BLOOD,AUTOMATED,PRE-DOSE,0,2025-08-11,0
NCSTUDY01,LB,NCSTUDY01-ANIMAL0025,4,PLT,Platelet Count,947.8,10^3/µL,947.8,947.8,10^3/µL,500.0,1300.0,N,,,Y,CENTRAL LAB,BLOOD,AUTOMATED,PRE-DOSE,0,2025-08-11,0
NCSTUDY01,LB,NCSTUDY01-ANIMAL0025,5,ALT,Alanine Aminotransferase,53.0,U/L,53.0,53.0,U/L,20.0,90.0,N,,,Y,CENTRAL LAB,BLOOD,AUTOMATED,PRE-DOSE,0,2025-08-11,0
NCSTUDY01,LB,NCSTUDY01-ANIMAL0025,6,AST,Aspartate Aminotransferase,87.7,U/L,87.7,87.7,U/L,40.0,120.0,N,,,Y,CENTRAL LAB,BLOOD,AUTOMATED,PRE-DOSE,0,2025-08-11,0
NCSTUDY01,LB,NCSTUDY01-ANIMAL0025,7,GLUC,Glucose,102.2,mg/dL,102.2,102.2,mg/dL,70.0,150.0,N,,,Y,CENTRAL LAB,BLOOD,AUTOMATED,PRE-DOSE,0,2025-08-11,0
NCSTUDY01,LB,NCSTUDY01-ANIMAL0025,8,CREAT,Creatinine,0.5,mg/dL,0.5,0.5,mg/dL,0.2,0.6,N,,,Y,CENTRAL LAB,BLOOD,AUTOMATED,PRE-DOSE,0,2025-08-11,0
NCSTUDY01,LB,NCSTUDY01-ANIMAL0025,9,HGB,Hemoglobin,17.4,g/dL,17.4,17.4,g/dL,12.0,18.0,N,,,N,CENTRAL LAB,BLOOD,AUTOMATED,WEEK 2,14,2025-08-25,14
NCSTUDY01,LB,NCSTUDY01-ANIMAL0025,10,RBC,Red Blood Cell Count,6.6,10^6/µL,6.6,6.6,10^6/µL,6.0,10.0,N,,,N,CENTRAL LAB,BLOOD,AUTOMATED,WEEK 2,14,2025-08-25,14
NCSTUDY01,LB,NCSTUDY01-ANIMAL0025,11,WBC,White Blood Cell Count,8.3,10^3/µL,8.3,8.3,10^3/µL,5.0,15.0,N,,,N,CENTRAL LAB,BLOOD,AUTOMATED,WEEK 2,14,2025-08-25,14
NCSTUDY01,LB,NCSTUDY01-ANIMAL0025,12,PLT,Platelet Count,942.4,10^3/µL,942.4,942.4,10^3/µL,500.0,1300.0,N,,,N,CENTRAL LAB,BLOOD,AUTOMATED,WEEK 2,14,2025-08-25,14
NCSTUDY01,LB,NCSTUDY01-ANIMAL0025,13,ALT,Alanine Aminotransferase,51.0,U/L,51.0,51.0,U/L,20.0,90.0,N,,,N,CENTRAL LAB,BLOOD,AUTOMATED,WEEK 2,14,2025-08-25,14
NCSTUDY01,LB,NCSTUDY01-ANIMAL0025,14,AST,Aspartate Aminotransferase,86.2,U/L,86.2,86.2,U/L,40.0,120.0,N,,,N,CENTRAL LAB,BLOOD,AUTOMATED,WEEK 2,14,2025-08-25,14
NCSTUDY01,LB,NCSTUDY01-ANIMAL0025,15,GLUC,Glucose,98.3,mg/dL,98.3,98.3,mg/dL,70.0,150.0,N,,,N,CENTRAL LAB,BLOOD,AUTOMATED,WEEK 2,14,2025-08-25,14
NCSTUDY01,LB,NCSTUDY01-ANIMAL0025,16,CREAT,Creatinine,0.5,mg/dL,0.5,0.5,mg/dL,0.2,0.6,N,,,N,CENTRAL LAB,BLOOD,AUTOMATED,WEEK 2,14,2025-08-25,14
NCSTUDY01,LB,NCSTUDY01-ANIMAL0025,17,HGB,Hemoglobin,18.0,g/dL,18.0,18.0,g/dL,12.0,18.0,H,,,N,CENTRAL LAB,BLOOD,AUTOMATED,WEEK 4,28,2025-09-08,28
NCSTUDY01,LB,NCSTUDY01-ANIMAL0025,18,RBC,Red Blood Cell Count,6.9,10^6/µL,6.9,6.9,10^6/µL,6.0,10.0,N,,,N,CENTRAL LAB,BLOOD,AUTOMATED,WEEK 4,28,2025-09-08,28
NCSTUDY01,LB,NCSTUDY01-ANIMAL0025,19,WBC,White Blood Cell Count,8.1,10^3/µL,8.1,8.1,10^3/µL,5.0,15.0,N,,,N,CENTRAL LAB,BLOOD,AUTOMATED,WEEK 4,28,2025-09-08,28
NCSTUDY01,LB,NCSTUDY01-ANIMAL0025,20,PLT,Platelet Count,914.9,10^3/µL,914.9,914.9,10^3/µL,500.0,1300.0,N,,,N,CENTRAL LAB,BLOOD,AUTOMATED,WEEK 4,28,2025-09-08,28
NCSTUDY01,LB,NCSTUDY01-ANIMAL0025,21,ALT,Alanine Aminotransferase,53.7,U/L,53.7,53.7,U/L,20.0,90.0,N,,,N,CENTRAL LAB,BLOOD,AUTOMATED,WEEK 4,28,2025-09-08,28
NCSTUDY01,LB,NCSTUDY01-ANIMAL0025,22,AST,Aspartate Aminotransferase,89.0,U/L,89.0,89.0,U/L,40.0,120.0,N,,,N,CENTRAL LAB,BLOOD,AUTOMATED,WEEK 4,28,2025-09-08,28
NCSTUDY01,LB,NCSTUDY01-ANIMAL0025,23,GLUC,Glucose,103.8,mg/dL,103.8,103.8,mg/dL,70.0,150.0,N,,,N,CENTRAL LAB,BLOOD,AUTOMATED,WEEK 4,28,2025-09-08,28
NCSTUDY01,LB,NCSTUDY01-ANIMAL0025,24,CREAT,Creatinine,0.5,mg/dL,0.5,0.5,mg/dL,0.2,0.6,N,,,N,CENTRAL LAB,BLOOD,AUTOMATED,WEEK 4,28,2025-09-08,28
NCSTUDY01,LB,NCSTUDY01-ANIMAL0026,1,HGB,Hemoglobin,14.0,g/dL,14.0,14.0,g/dL,12.0,18.0,N,,,Y,CENTRAL LAB,BLOOD,AUTOMATED,PRE-DOSE,0,2025-09-17,0
NCSTUDY01,LB,NCSTUDY01-ANIMAL0026,2,RBC,Red Blood Cell Count,8.1,10^6/µL,8.1,8.1,10^6/µL,6.0,10.0,N,,,Y,CENTRAL LAB,BLOOD,AUTOMATED,PRE-DOSE,0,2025-09-17,0
NCSTUDY01,LB,NCSTUDY01-ANIMAL0026,3,WBC,White Blood Cell Count,14.7,10^3/µL,14.7,14.7,10^3/µL,5.0,15.0,N,,,Y,CENTRAL LAB,BLOOD,AUTOMATED,PRE-DOSE,0,2025-09-17,0
NCSTUDY01,LB,NCSTUDY01-ANIMAL0026,4,PLT,Platelet Count,682.4,10^3/µL,682.4,682.4,10^3/µL,500.0,1300.0,N,,,Y,CENTRAL LAB,BLOOD,AUTOMATED,PRE-DOSE,0,2025-09-17,0
NCSTUDY01,LB,NCSTUDY01-ANIMAL0026,5,ALT,Alanine Aminotransferase,52.7,U/L,52.7,52.7,U/L,20.0,90.0,N,,,Y,CENTRAL LAB,BLOOD,AUTOMATED,PRE-DOSE,0,2025-09-17,0
NCSTUDY01,LB,NCSTUDY01-ANIMAL0026,6,AST,Aspartate Aminotransferase,93.3,U/L,93.3,93.3,U/L,40.0,120.0,N,,,Y,CENTRAL LAB,BLOOD,AUTOMATED,PRE-DOSE,0,2025-09-17,0
NCSTUDY01,LB,NCSTUDY01-ANIMAL0026,7,GLUC,Glucose,96.0,mg/dL,96.0,96.0,mg/dL,70.0,150.0,N,,,Y,CENTRAL LAB,BLOOD,AUTOMATED,PRE-DOSE,0,2025-09-17,0
NCSTUDY01,LB,NCSTUDY01-ANIMAL0026,8,CREAT,Creatinine,0.5,mg/dL,0.5,0.5,mg/dL,0.2,0.6,N,,,Y,CENTRAL LAB,BLOOD,AUTOMATED,PRE-DOSE,0,2025-09-17,0
NCSTUDY01,LB,NCSTUDY01-ANIMAL0026,9,HGB,Hemoglobin,16.3,g/dL,16.3,16.3,g/dL,12.0,18.0,N,,,N,CENTRAL LAB,BLOOD,AUTOMATED,WEEK 2,14,2025-10-01,14
NCSTUDY01,LB,NCSTUDY01-ANIMAL0026,10,RBC,Red Blood Cell Count,7.0,10^6/µL,7.0,7.0,10^6/µL,6.0,10.0,N,,,N,CENTRAL LAB,BLOOD,AUTOMATED,WEEK 2,14,2025-10-01,14
NCSTUDY01,LB,NCSTUDY01-ANIMAL0026,11,WBC,White Blood Cell Count,13.9,10^3/µL,13.9,13.9,10^3/µL,5.0,15.0,N,,,N,CENTRAL LAB,BLOOD,AUTOMATED,WEEK 2,14,2025-10-01,14
NCSTUDY01,LB,NCSTUDY01-ANIMAL0026,12,PLT,Platelet Count,767.1,10^3/µL,767.1,767.1,10^3/µL,500.0,1300.0,N,,,N,CENTRAL LAB,BLOOD,AUTOMATED,WEEK 2,14,2025-10-01,14
NCSTUDY01,LB,NCSTUDY01-ANIMAL0026,13,ALT,Alanine Aminotransferase,54.3,U/L,54.3,54.3,U/L,20.0,90.0,N,,,N,CENTRAL LAB,BLOOD,AUTOMATED,WEEK 2,14,2025-10-01,14
NCSTUDY01,LB,NCSTUDY01-ANIMAL0026,14,AST,Aspartate Aminotransferase,107.7,U/L,107.7,107.7,U/L,40.0,120.0,N,,,N,CENTRAL LAB,BLOOD,AUTOMATED,WEEK 2,14,2025-10-01,14
NCSTUDY01,LB,NCSTUDY01-ANIMAL0026,15,GLUC,Glucose,101.3,mg/dL,101.3,101.3,mg/dL,70.0,150.0,N,,,N,CENTRAL LAB,BLOOD,AUTOMATED,WEEK 2,14,2025-10-01,14
NCSTUDY01,LB,NCSTUDY01-ANIMAL0026,16,CREAT,Creatinine,0.5,mg/dL,0.5,0.5,mg/dL,0.2,0.6,N,,,N,CENTRAL LAB,BLOOD,AUTOMATED,WEEK 2,14,2025-10-01,14
NCSTUDY01,LB,NCSTUDY01-ANIMAL0026,17,HGB,Hemoglobin,8.9,g/dL,8.9,8.9,g/dL,12.0,18.0,L,,,N,CENTRAL LAB,BLOOD,AUTOMATED,WEEK 4,28,2025-10-15,28
NCSTUDY01,LB,NCSTUDY01-ANIMAL0026,18,RBC,Red Blood Cell Count,8.2,10^6/µL,8.2,8.2,10^6/µL,6.0,10.0,N,,,N,CENTRAL LAB,BLOOD,AUTOMATED,WEEK 4,28,2025-10-15,28
NCSTUDY01,LB,NCSTUDY01-ANIMAL0026,19,WBC,White Blood Cell Count,15.5,10^3/µL,15.5,15.5,10^3/µL,5.0,15.0,H,,,N,CENTRAL LAB,BLOOD,AUTOMATED,WEEK 4,28,2025-10-15,28
NCSTUDY01,LB,NCSTUDY01-ANIMAL0026,20,PLT,Platelet Count,384.2,10^3/µL,384.2,384.2,10^3/µL,500.0,1300.0,L,,,N,CENTRAL LAB,BLOOD,AUTOMATED,WEEK 4,28,2025-10-15,28
NCSTUDY01,LB,NCSTUDY01-ANIMAL0026,21,ALT,Alanine Aminotransferase,39.4,U/L,39.4,39.4,U/L,20.0,90.0,N,,,N,CENTRAL LAB,BLOOD,AUTOMATED,WEEK 4,28,2025-10-15,28
NCSTUDY01,LB,NCSTUDY01-ANIMAL0026,22,AST,Aspartate Aminotransferase,67.8,U/L,67.8,67.8,U/L,40.0,120.0,N,,,N,CENTRAL LAB,BLOOD,AUTOMATED,WEEK 4,28,2025-10-15,28
NCSTUDY01,LB,NCSTUDY01-ANIMAL0026,23,GLUC,Glucose,131.0,mg/dL,131.0,131.0,mg/dL,70.0,150.0,N,,,N,CENTRAL LAB,BLOOD,AUTOMATED,WEEK 4,28,2025-10-15,28
NCSTUDY01,LB,NCSTUDY01-ANIMAL0026,24,CREAT,Creatinine,0.4,mg/dL,0.4,0.4,mg/dL,0.2,0.6,N,,,N,CENTRAL LAB,BLOOD,AUTOMATED,WEEK 4,28,2025-10-15,28
NCSTUDY01,LB,NCSTUDY01-ANIMAL0027,1,HGB,Hemoglobin,15.9,g/dL,15.9,15.9,g/dL,12.0,18.0,N,,,Y,CENTRAL LAB,BLOOD,AUTOMATED,PRE-DOSE,0,2025-07-31,0
NCSTUDY01,LB,NCSTUDY01-ANIMAL0027,2,RBC,Red Blood Cell Count,7.5,10^6/µL,7.5,7.5,10^6/µL,6.0,10.0,N,,,Y,CENTRAL LAB,BLOOD,AUTOMATED,PRE-DOSE,0,2025-07-31,0
NCSTUDY01,LB,NCSTUDY01-ANIMAL0027,3,WBC,White Blood Cell Count,12.5,10^3/µL,12.5,12.5,10^3/µL,5.0,15.0,N,,,Y,CENTRAL LAB,BLOOD,AUTOMATED,PRE-DOSE,0,2025-07-31,0
NCSTUDY01,LB,NCSTUDY01-ANIMAL0027,4,PLT,Platelet Count,642.0,10^3/µL,642.0,642.0,10^3/µL,500.0,1300.0,N,,,Y,CENTRAL LAB,BLOOD,AUTOMATED,PRE-DOSE,0,2025-07-31,0
NCSTUDY01,LB,NCSTUDY01-ANIMAL0027,5,ALT,Alanine Aminotransferase,79.4,U/L,79.4,79.4,U/L,20.0,90.0,N,,,Y,CENTRAL LAB,BLOOD,AUTOMATED,PRE-DOSE,0,2025-07-31,0
NCSTUDY01,LB,NCSTUDY01-ANIMAL0027,6,AST,Aspartate Aminotransferase,48.7,U/L,48.7,48.7,U/L,40.0,120.0,N,,,Y,CENTRAL LAB,BLOOD,AUTOMATED,PRE-DOSE,0,2025-07-31,0
NCSTUDY01,LB,NCSTUDY01-ANIMAL0027,7,GLUC,Glucose,92.8,mg/dL,92.8,92.8,mg/dL,70.0,150.0,N,,,Y,CENTRAL LAB,BLOOD,AUTOMATED,PRE-DOSE,0,2025-07-31,0
NCSTUDY01,LB,NCSTUDY01-ANIMAL0027,8,CREAT,Creatinine,0.3,mg/dL,0.3,0.3,mg/dL,0.2,0.6,N,,,Y,CENTRAL LAB,BLOOD,AUTOMATED,PRE-DOSE,0,2025-07-31,0
NCSTUDY01,LB,NCSTUDY01-ANIMAL0027,9,HGB,Hemoglobin,18.5,g/dL,18.5,18.5,g/dL,12.0,18.0,H,,,N,CENTRAL LAB,BLOOD,AUTOMATED,WEEK 2,14,2025-08-14,14
NCSTUDY01,LB,NCSTUDY01-ANIMAL0027,10,RBC,Red Blood Cell Count,6.9,10^6/µL,6.9,6.9,10^6/µL,6.0,10.0,N,,,N,CENTRAL LAB,BLOOD,AUTOMATED,WEEK 2,14,2025-08-14,14
NCSTUDY01,LB,NCSTUDY01-ANIMAL0027,11,WBC,White Blood Cell Count,14.3,10^3/µL,14.3,14.3,10^3/µL,5.0,15.0,N,,,N,CENTRAL LAB,BLOOD,AUTOMATED,WEEK 2,14,2025-08-14,14
NCSTUDY01,LB,NCSTUDY01-ANIMAL0027,12,PLT,Platelet Count,631.9,10^3/µL,631.9,631.9,10^3/µL,500.0,1300.0,N,,,N,CENTRAL LAB,BLOOD,AUTOMATED,WEEK 2,14,2025-08-14,14
NCSTUDY01,LB,NCSTUDY01-ANIMAL0027,13,ALT,Alanine Aminotransferase,75.4,U/L,75.4,75.4,U/L,20.0,90.0,N,,,N,CENTRAL LAB,BLOOD,AUTOMATED,WEEK 2,14,2025-08-14,14
NCSTUDY01,LB,NCSTUDY01-ANIMAL0027,14,AST,Aspartate Aminotransferase,50.3,U/L,50.3,50.3,U/L,40.0,120.0,N,,,N,CENTRAL LAB,BLOOD,AUTOMATED,WEEK 2,14,2025-08-14,14
NCSTUDY01,LB,NCSTUDY01-ANIMAL0027,15,GLUC,Glucose,96.3,mg/dL,96.3,96.3,mg/dL,70.0,150.0,N,,,N,CENTRAL LAB,BLOOD,AUTOMATED,WEEK 2,14,2025-08-14,14
NCSTUDY01,LB,NCSTUDY01-ANIMAL0027,16,CREAT,Creatinine,0.4,mg/dL,0.4,0.4,mg/dL,0.2,0.6,N,,,N,CENTRAL LAB,BLOOD,AUTOMATED,WEEK 2,14,2025-08-14,14
NCSTUDY01,LB,NCSTUDY01-ANIMAL0027,17,HGB,Hemoglobin,10.3,g/dL,10.3,10.3,g/dL,12.0,18.0,L,,,N,CENTRAL LAB,BLOOD,AUTOMATED,WEEK 4,28,2025-08-28,28
NCSTUDY01,LB,NCSTUDY01-ANIMAL0027,18,RBC,Red Blood Cell Count,9.7,10^6/µL,9.7,9.7,10^6/µL,6.0,10.0,N,,,N,CENTRAL LAB,BLOOD,AUTOMATED,WEEK 4,28,2025-08-28,28
NCSTUDY01,LB,NCSTUDY01-ANIMAL0027,19,WBC,White Blood Cell Count,17.7,10^3/µL,17.7,17.7,10^3/µL,5.0,15.0,H,,,N,CENTRAL LAB,BLOOD,AUTOMATED,WEEK 4,28,2025-08-28,28
NCSTUDY01,LB,NCSTUDY01-ANIMAL0027,20,PLT,Platelet Count,608.3,10^3/µL,608.3,608.3,10^3/µL,500.0,1300.0,N,,,N,CENTRAL LAB,BLOOD,AUTOMATED,WEEK 4,28,2025-08-28,28
NCSTUDY01,LB,NCSTUDY01-ANIMAL0027,21,ALT,Alanine Aminotransferase,60.5,U/L,60.5,60.5,U/L,20.0,90.0,N,,,N,CENTRAL LAB,BLOOD,AUTOMATED,WEEK 4,28,2025-08-28,28
NCSTUDY01,LB,NCSTUDY01-ANIMAL0027,22,AST,Aspartate Aminotransferase,32.4,U/L,32.4,32.4,U/L,40.0,120.0,L,,,N,CENTRAL LAB,BLOOD,AUTOMATED,WEEK 4,28,2025-08-28,28
NCSTUDY01,LB,NCSTUDY01-ANIMAL0027,23,GLUC,Glucose,63.2,mg/dL,63.2,63.2,mg/dL,70.0,150.0,L,,,N,CENTRAL LAB,BLOOD,AUTOMATED,WEEK 4,28,2025-08-28,28
NCSTUDY01,LB,NCSTUDY01-ANIMAL0027,24,CREAT,Creatinine,0.3,mg/dL,0.3,0.3,mg/dL,0.2,0.6,N,,,N,CENTRAL LAB,BLOOD,AUTOMATED,WEEK 4,28,2025-08-28,28
NCSTUDY01,LB,NCSTUDY01-ANIMAL0028,1,HGB,Hemoglobin,15.9,g/dL,15.9,15.9,g/dL,12.0,18.0,N,,,Y,CENTRAL LAB,BLOOD,AUTOMATED,PRE-DOSE,0,2025-08-27,0
NCSTUDY01,LB,NCSTUDY01-ANIMAL0028,2,RBC,Red Blood Cell Count,6.2,10^6/µL,6.2,6.2,10^6/µL,6.0,10.0,N,,,Y,CENTRAL LAB,BLOOD,AUTOMATED,PRE-DOSE,0,2025-08-27,0
NCSTUDY01,LB,NCSTUDY01-ANIMAL0028,3,WBC,White Blood Cell Count,10.5,10^3/µL,10.5,10.5,10^3/µL,5.0,15.0,N,,,Y,CENTRAL LAB,BLOOD,AUTOMATED,PRE-DOSE,0,2025-08-27,0
NCSTUDY01,LB,NCSTUDY01-ANIMAL0028,4,PLT,Platelet Count,841.6,10^3/µL,841.6,841.6,10^3/µL,500.0,1300.0,N,,,Y,CENTRAL LAB,BLOOD,AUTOMATED,PRE-DOSE,0,2025-08-27,0
NCSTUDY01,LB,NCSTUDY01-ANIMAL0028,5,ALT,Alanine Aminotransferase,57.8,U/L,57.8,57.8,U/L,20.0,90.0,N,,,Y,CENTRAL LAB,BLOOD,AUTOMATED,PRE-DOSE,0,2025-08-27,0
NCSTUDY01,LB,NCSTUDY01-ANIMAL0028,6,AST,Aspartate Aminotransferase,53.6,U/L,53.6,53.6,U/L,40.0,120.0,N,,,Y,CENTRAL LAB,BLOOD,AUTOMATED,PRE-DOSE,0,2025-08-27,0
NCSTUDY01,LB,NCSTUDY01-ANIMAL0028,7,GLUC,Glucose,82.0,mg/dL,82.0,82.0,mg/dL,70.0,150.0,N,,,Y,CENTRAL LAB,BLOOD,AUTOMATED,PRE-DOSE,0,2025-08-27,0
NCSTUDY01,LB,NCSTUDY01-ANIMAL0028,8,CREAT,Creatinine,0.5,mg/dL,0.5,0.5,mg/dL,0.2,0.6,N,,,Y,CENTRAL LAB,BLOOD,AUTOMATED,PRE-DOSE,0,2025-08-27,0
NCSTUDY01,LB,NCSTUDY01-ANIMAL0028,9,HGB,Hemoglobin,16.4,g/dL,16.4,16.4,g/dL,12.0,18.0,N,,,N,CENTRAL LAB,BLOOD,AUTOMATED,WEEK 2,14,2025-09-10,14
NCSTUDY01,LB,NCSTUDY01-ANIMAL0028,10,RBC,Red Blood Cell Count,6.4,10^6/µL,6.4,6.4,10^6/µL,6.0,10.0,N,,,N,CENTRAL LAB,BLOOD,AUTOMATED,WEEK 2,14,2025-09-10,14
NCSTUDY01,LB,NCSTUDY01-ANIMAL0028,11,WBC,White Blood Cell Count,10.1,10^3/µL,10.1,10.1,10^3/µL,5.0,15.0,N,,,N,CENTRAL LAB,BLOOD,AUTOMATED,WEEK 2,14,2025-09-10,14
NCSTUDY01,LB,NCSTUDY01-ANIMAL0028,12,PLT,Platelet Count,830.1,10^3/µL,830.1,830.1,10^3/µL,500.0,1300.0,N,,,N,CENTRAL LAB,BLOOD,AUTOMATED,WEEK 2,14,2025-09-10,14
NCSTUDY01,LB,NCSTUDY01-ANIMAL0028,13,ALT,Alanine Aminotransferase,56.2,U/L,56.2,56.2,U/L,20.0,90.0,N,,,N,CENTRAL LAB,BLOOD,AUTOMATED,WEEK 2,14,2025-09-10,14
NCSTUDY01,LB,NCSTUDY01-ANIMAL0028,14,AST,Aspartate Aminotransferase,56.1,U/L,56.1,56.1,U/L,40.0,120.0,N,,,N,CENTRAL LAB,BLOOD,AUTOMATED,WEEK 2,14,2025-09-10,14
NCSTUDY01,LB,NCSTUDY01-ANIMAL0028,15,GLUC,Glucose,76.0,mg/dL,76.0,76.0,mg/dL,70.0,150.0,N,,,N,CENTRAL LAB,BLOOD,AUTOMATED,WEEK 2,14,2025-09-10,14
NCSTUDY01,LB,NCSTUDY01-ANIMAL0028,16,CREAT,Creatinine,0.5,mg/dL,0.5,0.5,mg/dL,0.2,0.6,N,,,N,CENTRAL LAB,BLOOD,AUTOMATED,WEEK 2,14,2025-09-10,14
NCSTUDY01,LB,NCSTUDY01-ANIMAL0028,17,HGB,Hemoglobin,17.3,g/dL,17.3,17.3,g/dL,12.0,18.0,N,,,N,CENTRAL LAB,BLOOD,AUTOMATED,WEEK 4,28,2025-09-24,28
NCSTUDY01,LB,NCSTUDY01-ANIMAL0028,18,RBC,Red Blood Cell Count,6.1,10^6/µL,6.1,6.1,10^6/µL,6.0,10.0,N,,,N,CENTRAL LAB,BLOOD,AUTOMATED,WEEK 4,28,2025-09-24,28
NCSTUDY01,LB,NCSTUDY01-ANIMAL0028,19,WBC,White Blood Cell Count,11.6,10^3/µL,11.6,11.6,10^3/µL,5.0,15.0,N,,,N,CENTRAL LAB,BLOOD,AUTOMATED,WEEK 4,28,2025-09-24,28
NCSTUDY01,LB,NCSTUDY01-ANIMAL0028,20,PLT,Platelet Count,791.1,10^3/µL,791.1,791.1,10^3/µL,500.0,1300.0,N,,,N,CENTRAL LAB,BLOOD,AUTOMATED,WEEK 4,28,2025-09-24,28
NCSTUDY01,LB,NCSTUDY01-ANIMAL0028,21,ALT,Alanine Aminotransferase,69.8,U/L,69.8,69.8,U/L,20.0,90.0,N,,,N,CENTRAL LAB,BLOOD,AUTOMATED,WEEK 4,28,2025-09-24,28
NCSTUDY01,LB,NCSTUDY01-ANIMAL0028,22,AST,Aspartate Aminotransferase,64.1,U/L,64.1,64.1,U/L,40.0,120.0,N,,,N,CENTRAL LAB,BLOOD,AUTOMATED,WEEK 4,28,2025-09-24,28
NCSTUDY01,LB,NCSTUDY01-ANIMAL0028,23,GLUC,Glucose,78.5,mg/dL,78.5,78.5,mg/dL,70.0,150.0,N,,,N,CENTRAL LAB,BLOOD,AUTOMATED,WEEK 4,28,2025-09-24,28
NCSTUDY01,LB,NCSTUDY01-ANIMAL0028,24,CREAT,Creatinine,0.4,mg/dL,0.4,0.4,mg/dL,0.2,0.6,N,,,N,CENTRAL LAB,BLOOD,AUTOMATED,WEEK 4,28,2025-09-24,28
NCSTUDY01,LB,NCSTUDY01-ANIMAL0029,1,HGB,Hemoglobin,17.0,g/dL,17.0,17.0,g/dL,12.0,18.0,N,,,Y,CENTRAL LAB,BLOOD,AUTOMATED,PRE-DOSE,0,2025-08-02,0
NCSTUDY01,LB,NCSTUDY01-ANIMAL0029,2,RBC,Red Blood Cell Count,7.0,10^6/µL,7.0,7.0,10^6/µL,6.0,10.0,N,,,Y,CENTRAL LAB,BLOOD,AUTOMATED,PRE-DOSE,0,2025-08-02,0
NCSTUDY01,LB,NCSTUDY01-ANIMAL0029,3,WBC,White Blood Cell Count,6.0,10^3/µL,6.0,6.0,10^3/µL,5.0,15.0,N,,,Y,CENTRAL LAB,BLOOD,AUTOMATED,PRE-DOSE,0,2025-08-02,0
NCSTUDY01,LB,NCSTUDY01-ANIMAL0029,4,PLT,Platelet Count,1006.5,10^3/µL,1006.5,1006.5,10^3/µL,500.0,1300.0,N,,,Y,CENTRAL LAB,BLOOD,AUTOMATED,PRE-DOSE,0,2025-08-02,0
NCSTUDY01,LB,NCSTUDY01-ANIMAL0029,5,ALT,Alanine Aminotransferase,41.8,U/L,41.8,41.8,U/L,20.0,90.0,N,,,Y,CENTRAL LAB,BLOOD,AUTOMATED,PRE-DOSE,0,2025-08-02,0
NCSTUDY01,LB,NCSTUDY01-ANIMAL0029,6,AST,Aspartate Aminotransferase,67.6,U/L,67.6,67.6,U/L,40.0,120.0,N,,,Y,CENTRAL LAB,BLOOD,AUTOMATED,PRE-DOSE,0,2025-08-02,0
NCSTUDY01,LB,NCSTUDY01-ANIMAL0029,7,GLUC,Glucose,131.9,mg/dL,131.9,131.9,mg/dL,70.0,150.0,N,,,Y,CENTRAL LAB,BLOOD,AUTOMATED,PRE-DOSE,0,2025-08-02,0
NCSTUDY01,LB,NCSTUDY01-ANIMAL0029,8,CREAT,Creatinine,0.3,mg/dL,0.3,0.3,mg/dL,0.2,0.6,N,,,Y,CENTRAL LAB,BLOOD,AUTOMATED,PRE-DOSE,0,2025-08-02,0
NCSTUDY01,LB,NCSTUDY01-ANIMAL0029,9,HGB,Hemoglobin,17.4,g/dL,17.4,17.4,g/dL,12.0,18.0,N,,,N,CENTRAL LAB,BLOOD,AUTOMATED,WEEK 2,14,2025-08-16,14
NCSTUDY01,LB,NCSTUDY01-ANIMAL0029,10,RBC,Red Blood Cell Count,8.0,10^6/µL,8.0,8.0,10^6/µL,6.0,10.0,N,,,N,CENTRAL LAB,BLOOD,AUTOMATED,WEEK 2,14,2025-08-16,14
NCSTUDY01,LB,NCSTUDY01-ANIMAL0029,11,WBC,White Blood Cell Count,5.7,10^3/µL,5.7,5.7,10^3/µL,5.0,15.0,N,,,N,CENTRAL LAB,BLOOD,AUTOMATED,WEEK 2,14,2025-08-16,14
NCSTUDY01,LB,NCSTUDY01-ANIMAL0029,12,PLT,Platelet Count,1123.1,10^3/µL,1123.1,1123.1,10^3/µL,500.0,1300.0,N,,,N,CENTRAL LAB,BLOOD,AUTOMATED,WEEK 2,14,2025-08-16,14
NCSTUDY01,LB,NCSTUDY01-ANIMAL0029,13,ALT,Alanine Aminotransferase,36.8,U/L,36.8,36.8,U/L,20.0,90.0,N,,,N,CENTRAL LAB,BLOOD,AUTOMATED,WEEK 2,14,2025-08-16,14
NCSTUDY01,LB,NCSTUDY01-ANIMAL0029,14,AST,Aspartate Aminotransferase,73.5,U/L,73.5,73.5,U/L,40.0,120.0,N,,,N,CENTRAL LAB,BLOOD,AUTOMATED,WEEK 2,14,2025-08-16,14
NCSTUDY01,LB,NCSTUDY01-ANIMAL0029,15,GLUC,Glucose,142.6,mg/dL,142.6,142.6,mg/dL,70.0,150.0,N,,,N,CENTRAL LAB,BLOOD,AUTOMATED,WEEK 2,14,2025-08-16,14
NCSTUDY01,LB,NCSTUDY01-ANIMAL0029,16,CREAT,Creatinine,0.3,mg/dL,0.3,0.3,mg/dL,0.2,0.6,N,,,N,CENTRAL LAB,BLOOD,AUTOMATED,WEEK 2,14,2025-08-16,14
NCSTUDY01,LB,NCSTUDY01-ANIMAL0029,17,HGB,Hemoglobin,16.3,g/dL,16.3,16.3,g/dL,12.0,18.0,N,,,N,CENTRAL LAB,BLOOD,AUTOMATED,WEEK 4,28,2025-08-30,28
NCSTUDY01,LB,NCSTUDY01-ANIMAL0029,18,RBC,Red Blood Cell Count,6.5,10^6/µL,6.5,6.5,10^6/µL,6.0,10.0,N,,,N,CENTRAL LAB,BLOOD,AUTOMATED,WEEK 4,28,2025-08-30,28
NCSTUDY01,LB,NCSTUDY01-ANIMAL0029,19,WBC,White Blood Cell Count,6.2,10^3/µL,6.2,6.2,10^3/µL,5.0,15.0,N,,,N,CENTRAL LAB,BLOOD,AUTOMATED,WEEK 4,28,2025-08-30,28
NCSTUDY01,LB,NCSTUDY01-ANIMAL0029,20,PLT,Platelet Count,993.5,10^3/µL,993.5,993.5,10^3/µL,500.0,1300.0,N,,,N,CENTRAL LAB,BLOOD,AUTOMATED,WEEK 4,28,2025-08-30,28
NCSTUDY01,LB,NCSTUDY01-ANIMAL0029,21,ALT,Alanine Aminotransferase,36.4,U/L,36.4,36.4,U/L,20.0,90.0,N,,,N,CENTRAL LAB,BLOOD,AUTOMATED,WEEK 4,28,2025-08-30,28
NCSTUDY01,LB,NCSTUDY01-ANIMAL0029,22,AST,Aspartate Aminotransferase,65.0,U/L,65.0,65.0,U/L,40.0,120.0,N,,,N,CENTRAL LAB,BLOOD,AUTOMATED,WEEK 4,28,2025-08-30,28
NCSTUDY01,LB,NCSTUDY01-ANIMAL0029,23,GLUC,Glucose,159.2,mg/dL,159.2,159.2,mg/dL,70.0,150.0,H,,,N,CENTRAL LAB,BLOOD,AUTOMATED,WEEK 4,28,2025-08-30,28
NCSTUDY01,LB,NCSTUDY01-ANIMAL0029,24,CREAT,Creatinine,0.3,mg/dL,0.3,0.3,mg/dL,0.2,0.6,N,,,N,CENTRAL LAB,BLOOD,AUTOMATED,WEEK 4,28,2025-08-30,28
NCSTUDY01,LB,NCSTUDY01-ANIMAL0030,1,HGB,Hemoglobin,15.6,g/dL,15.6,15.6,g/dL,12.0,18.0,N,,,Y,CENTRAL LAB,BLOOD,AUTOMATED,PRE-DOSE,0,2025-06-09,0
NCSTUDY01,LB,NCSTUDY01-ANIMAL0030,2,RBC,Red Blood Cell Count,8.8,10^6/µL,8.8,8.8,10^6/µL,6.0,10.0,N,,,Y,CENTRAL LAB,BLOOD,AUTOMATED,PRE-DOSE,0,2025-06-09,0
NCSTUDY01,LB,NCSTUDY01-ANIMAL0030,3,WBC,White Blood Cell Count,6.1,10^3/µL,6.1,6.1,10^3/µL,5.0,15.0,N,,,Y,CENTRAL LAB,BLOOD,AUTOMATED,PRE-DOSE,0,2025-06-09,0
NCSTUDY01,LB,NCSTUDY01-ANIMAL0030,4,PLT,Platelet Count,1002.4,10^3/µL,1002.4,1002.4,10^3/µL,500.0,1300.0,N,,,Y,CENTRAL LAB,BLOOD,AUTOMATED,PRE-DOSE,0,2025-06-09,0
NCSTUDY01,LB,NCSTUDY01-ANIMAL0030,5,ALT,Alanine Aminotransferase,76.0,U/L,76.0,76.0,U/L,20.0,90.0,N,,,Y,CENTRAL LAB,BLOOD,AUTOMATED,PRE-DOSE,0,2025-06-09,0
NCSTUDY01,LB,NCSTUDY01-ANIMAL0030,6,AST,Aspartate Aminotransferase,111.0,U/L,111.0,111.0,U/L,40.0,120.0,N,,,Y,CENTRAL LAB,BLOOD,AUTOMATED,PRE-DOSE,0,2025-06-09,0
NCSTUDY01,LB,NCSTUDY01-ANIMAL0030,7,GLUC,Glucose,149.4,mg/dL,149.4,149.4,mg/dL,70.0,150.0,N,,,Y,CENTRAL LAB,BLOOD,AUTOMATED,PRE-DOSE,0,2025-06-09,0
NCSTUDY01,LB,NCSTUDY01-ANIMAL0030,8,CREAT,Creatinine,0.4,mg/dL,0.4,0.4,mg/dL,0.2,0.6,N,,,Y,CENTRAL LAB,BLOOD,AUTOMATED,PRE-DOSE,0,2025-06-09,0
NCSTUDY01,LB,NCSTUDY01-ANIMAL0030,9,HGB,Hemoglobin,16.3,g/dL,16.3,16.3,g/dL,12.0,18.0,N,,,N,CENTRAL LAB,BLOOD,AUTOMATED,WEEK 2,14,2025-06-23,14
NCSTUDY01,LB,NCSTUDY01-ANIMAL0030,10,RBC,Red Blood Cell Count,8.0,10^6/µL,8.0,8.0,10^6/µL,6.0,10.0,N,,,N,CENTRAL LAB,BLOOD,AUTOMATED,WEEK 2,14,2025-06-23,14
NCSTUDY01,LB,NCSTUDY01-ANIMAL0030,11,WBC,White Blood Cell Count,6.3,10^3/µL,6.3,6.3,10^3/µL,5.0,15.0,N,,,N,CENTRAL LAB,BLOOD,AUTOMATED,WEEK 2,14,2025-06-23,14
NCSTUDY01,LB,NCSTUDY01-ANIMAL0030,12,PLT,Platelet Count,995.2,10^3/µL,995.2,995.2,10^3/µL,500.0,1300.0,N,,,N,CENTRAL LAB,BLOOD,AUTOMATED,WEEK 2,14,2025-06-23,14
NCSTUDY01,LB,NCSTUDY01-ANIMAL0030,13,ALT,Alanine Aminotransferase,66.9,U/L,66.9,66.9,U/L,20.0,90.0,N,,,N,CENTRAL LAB,BLOOD,AUTOMATED,WEEK 2,14,2025-06-23,14
NCSTUDY01,LB,NCSTUDY01-ANIMAL0030,14,AST,Aspartate Aminotransferase,121.5,U/L,121.5,121.5,U/L,40.0,120.0,H,,,N,CENTRAL LAB,BLOOD,AUTOMATED,WEEK 2,14,2025-06-23,14
NCSTUDY01,LB,NCSTUDY01-ANIMAL0030,15,GLUC,Glucose,159.2,mg/dL,159.2,159.2,mg/dL,70.0,150.0,H,,,N,CENTRAL LAB,BLOOD,AUTOMATED,WEEK 2,14,2025-06-23,14
NCSTUDY01,LB,NCSTUDY01-ANIMAL0030,16,CREAT,Creatinine,0.4,mg/dL,0.4,0.4,mg/dL,0.2,0.6,N,,,N,CENTRAL LAB,BLOOD,AUTOMATED,WEEK 2,14,2025-06-23,14
NCSTUDY01,LB,NCSTUDY01-ANIMAL0030,17,HGB,Hemoglobin,15.4,g/dL,15.4,15.4,g/dL,12.0,18.0,N,,,N,CENTRAL LAB,BLOOD,AUTOMATED,WEEK 4,28,2025-07-07,28
NCSTUDY01,LB,NCSTUDY01-ANIMAL0030,18,RBC,Red Blood Cell Count,8.3,10^6/µL,8.3,8.3,10^6/µL,6.0,10.0,N,,,N,CENTRAL LAB,BLOOD,AUTOMATED,WEEK 4,28,2025-07-07,28
NCSTUDY01,LB,NCSTUDY01-ANIMAL0030,19,WBC,White Blood Cell Count,5.2,10^3/µL,5.2,5.2,10^3/µL,5.0,15.0,N,,,N,CENTRAL LAB,BLOOD,AUTOMATED,WEEK 4,28,2025-07-07,28
NCSTUDY01,LB,NCSTUDY01-ANIMAL0030,20,PLT,Platelet Count,1065.8,10^3/µL,1065.8,1065.8,10^3/µL,500.0,1300.0,N,,,N,CENTRAL LAB,BLOOD,AUTOMATED,WEEK 4,28,2025-07-07,28
NCSTUDY01,LB,NCSTUDY01-ANIMAL0030,21,ALT,Alanine Aminotransferase,95.8,U/L,95.8,95.8,U/L,20.0,90.0,H,,,N,CENTRAL LAB,BLOOD,AUTOMATED,WEEK 4,28,2025-07-07,28
NCSTUDY01,LB,NCSTUDY01-ANIMAL0030,22,AST,Aspartate Aminotransferase,108.6,U/L,108.6,108.6,U/L,40.0,120.0,N,,,N,CENTRAL LAB,BLOOD,AUTOMATED,WEEK 4,28,2025-07-07,28
NCSTUDY01,LB,NCSTUDY01-ANIMAL0030,23,GLUC,Glucose,131.3,mg/dL,131.3,131.3,mg/dL,70.0,150.0,N,,,N,CENTRAL LAB,BLOOD,AUTOMATED,WEEK 4,28,2025-07-07,28
NCSTUDY01,LB,NCSTUDY01-ANIMAL0030,24,CREAT,Creatinine,0.4,mg/dL,0.4,0.4,mg/dL,0.2,0.6,N,,,N,CENTRAL LAB,BLOOD,AUTOMATED,WEEK 4,28,2025-07-07,28
NCSTUDY01,LB,NCSTUDY01-ANIMAL0031,1,HGB,Hemoglobin,15.1,g/dL,15.1,15.1,g/dL,12.0,18.0,N,,,Y,CENTRAL LAB,BLOOD,AUTOMATED,PRE-DOSE,0,2025-10-18,0
NCSTUDY01,LB,NCSTUDY01-ANIMAL0031,2,RBC,Red Blood Cell Count,7.4,10^6/µL,7.4,7.4,10^6/µL,6.0,10.0,N,,,Y,CENTRAL LAB,BLOOD,AUTOMATED,PRE-DOSE,0,2025-10-18,0
NCSTUDY01,LB,NCSTUDY01-ANIMAL0031,3,WBC,White Blood Cell Count,6.7,10^3/µL,6.7,6.7,10^3/µL,5.0,15.0,N,,,Y,CENTRAL LAB,BLOOD,AUTOMATED,PRE-DOSE,0,2025-10-18,0
NCSTUDY01,LB,NCSTUDY01-ANIMAL0031,4,PLT,Platelet Count,677.7,10^3/µL,677.7,677.7,10^3/µL,500.0,1300.0,N,,,Y,CENTRAL LAB,BLOOD,AUTOMATED,PRE-DOSE,0,2025-10-18,0
NCSTUDY01,LB,NCSTUDY01-ANIMAL0031,5,ALT,Alanine Aminotransferase,60.3,U/L,60.3,60.3,U/L,20.0,90.0,N,,,Y,CENTRAL LAB,BLOOD,AUTOMATED,PRE-DOSE,0,2025-10-18,0
NCSTUDY01,LB,NCSTUDY01-ANIMAL0031,6,AST,Aspartate Aminotransferase,84.5,U/L,84.5,84.5,U/L,40.0,120.0,N,,,Y,CENTRAL LAB,BLOOD,AUTOMATED,PRE-DOSE,0,2025-10-18,0
NCSTUDY01,LB,NCSTUDY01-ANIMAL0031,7,GLUC,Glucose,93.9,mg/dL,93.9,93.9,mg/dL,70.0,150.0,N,,,Y,CENTRAL LAB,BLOOD,AUTOMATED,PRE-DOSE,0,2025-10-18,0
NCSTUDY01,LB,NCSTUDY01-ANIMAL0031,8,CREAT,Creatinine,0.4,mg/dL,0.4,0.4,mg/dL,0.2,0.6,N,,,Y,CENTRAL LAB,BLOOD,AUTOMATED,PRE-DOSE,0,2025-10-18,0
NCSTUDY01,LB,NCSTUDY01-ANIMAL0031,9,HGB,Hemoglobin,15.3,g/dL,15.3,15.3,g/dL,12.0,18.0,N,,,N,CENTRAL LAB,BLOOD,AUTOMATED,WEEK 2,14,2025-11-01,14
NCSTUDY01,LB,NCSTUDY01-ANIMAL0031,10,RBC,Red Blood Cell Count,7.7,10^6/µL,7.7,7.7,10^6/µL,6.0,10.0,N,,,N,CENTRAL LAB,BLOOD,AUTOMATED,WEEK 2,14,2025-11-01,14
NCSTUDY01,LB,NCSTUDY01-ANIMAL0031,11,WBC,White Blood Cell Count,7.0,10^3/µL,7.0,7.0,10^3/µL,5.0,15.0,N,,,N,CENTRAL LAB,BLOOD,AUTOMATED,WEEK 2,14,2025-11-01,14
NCSTUDY01,LB,NCSTUDY01-ANIMAL0031,12,PLT,Platelet Count,721.1,10^3/µL,721.1,721.1,10^3/µL,500.0,1300.0,N,,,N,CENTRAL LAB,BLOOD,AUTOMATED,WEEK 2,14,2025-11-01,14
NCSTUDY01,LB,NCSTUDY01-ANIMAL0031,13,ALT,Alanine Aminotransferase,61.5,U/L,61.5,61.5,U/L,20.0,90.0,N,,,N,CENTRAL LAB,BLOOD,AUTOMATED,WEEK 2,14,2025-11-01,14
NCSTUDY01,LB,NCSTUDY01-ANIMAL0031,14,AST,Aspartate Aminotransferase,79.2,U/L,79.2,79.2,U/L,40.0,120.0,N,,,N,CENTRAL LAB,BLOOD,AUTOMATED,WEEK 2,14,2025-11-01,14
NCSTUDY01,LB,NCSTUDY01-ANIMAL0031,15,GLUC,Glucose,91.3,mg/dL,91.3,91.3,mg/dL,70.0,150.0,N,,,N,CENTRAL LAB,BLOOD,AUTOMATED,WEEK 2,14,2025-11-01,14
NCSTUDY01,LB,NCSTUDY01-ANIMAL0031,16,CREAT,Creatinine,0.4,mg/dL,0.4,0.4,mg/dL,0.2,0.6,N,,,N,CENTRAL LAB,BLOOD,AUTOMATED,WEEK 2,14,2025-11-01,14
NCSTUDY01,LB,NCSTUDY01-ANIMAL0031,17,HGB,Hemoglobin,14.8,g/dL,14.8,14.8,g/dL,12.0,18.0,N,,,N,CENTRAL LAB,BLOOD,AUTOMATED,WEEK 4,28,2025-11-15,28
NCSTUDY01,LB,NCSTUDY01-ANIMAL0031,18,RBC,Red Blood Cell Count,7.2,10^6/µL,7.2,7.2,10^6/µL,6.0,10.0,N,,,N,CENTRAL LAB,BLOOD,AUTOMATED,WEEK 4,28,2025-11-15,28
NCSTUDY01,LB,NCSTUDY01-ANIMAL0031,19,WBC,White Blood Cell Count,7.2,10^3/µL,7.2,7.2,10^3/µL,5.0,15.0,N,,,N,CENTRAL LAB,BLOOD,AUTOMATED,WEEK 4,28,2025-11-15,28
NCSTUDY01,LB,NCSTUDY01-ANIMAL0031,20,PLT,Platelet Count,704.3,10^3/µL,704.3,704.3,10^3/µL,500.0,1300.0,N,,,N,CENTRAL LAB,BLOOD,AUTOMATED,WEEK 4,28,2025-11-15,28
NCSTUDY01,LB,NCSTUDY01-ANIMAL0031,21,ALT,Alanine Aminotransferase,64.1,U/L,64.1,64.1,U/L,20.0,90.0,N,,,N,CENTRAL LAB,BLOOD,AUTOMATED,WEEK 4,28,2025-11-15,28
NCSTUDY01,LB,NCSTUDY01-ANIMAL0031,22,AST,Aspartate Aminotransferase,80.3,U/L,80.3,80.3,U/L,40.0,120.0,N,,,N,CENTRAL LAB,BLOOD,AUTOMATED,WEEK 4,28,2025-11-15,28
NCSTUDY01,LB,NCSTUDY01-ANIMAL0031,23,GLUC,Glucose,94.0,mg/dL,94.0,94.0,mg/dL,70.0,150.0,N,,,N,CENTRAL LAB,BLOOD,AUTOMATED,WEEK 4,28,2025-11-15,28
NCSTUDY01,LB,NCSTUDY01-ANIMAL0031,24,CREAT,Creatinine,0.4,mg/dL,0.4,0.4,mg/dL,0.2,0.6,N,,,N,CENTRAL LAB,BLOOD,AUTOMATED,WEEK 4,28,2025-11-15,28
NCSTUDY01,LB,NCSTUDY01-ANIMAL0032,1,HGB,Hemoglobin,16.0,g/dL,16.0,16.0,g/dL,12.0,18.0,N,,,Y,CENTRAL LAB,BLOOD,AUTOMATED,PRE-DOSE,0,2025-07-17,0
NCSTUDY01,LB,NCSTUDY01-ANIMAL0032,2,RBC,Red Blood Cell Count,10.0,10^6/µL,10.0,10.0,10^6/µL,6.0,10.0,H,,,Y,CENTRAL LAB,BLOOD,AUTOMATED,PRE-DOSE,0,2025-07-17,0
NCSTUDY01,LB,NCSTUDY01-ANIMAL0032,3,WBC,White Blood Cell Count,11.8,10^3/µL,11.8,11.8,10^3/µL,5.0,15.0,N,,,Y,CENTRAL LAB,BLOOD,AUTOMATED,PRE-DOSE,0,2025-07-17,0
NCSTUDY01,LB,NCSTUDY01-ANIMAL0032,4,PLT,Platelet Count,938.9,10^3/µL,938.9,938.9,10^3/µL,500.0,1300.0,N,,,Y,CENTRAL LAB,BLOOD,AUTOMATED,PRE-DOSE,0,2025-07-17,0
NCSTUDY01,LB,NCSTUDY01-ANIMAL0032,5,ALT,Alanine Aminotransferase,57.8,U/L,57.8,57.8,U/L,20.0,90.0,N,,,Y,CENTRAL LAB,BLOOD,AUTOMATED,PRE-DOSE,0,2025-07-17,0
NCSTUDY01,LB,NCSTUDY01-ANIMAL0032,6,AST,Aspartate Aminotransferase,59.5,U/L,59.5,59.5,U/L,40.0,120.0,N,,,Y,CENTRAL LAB,BLOOD,AUTOMATED,PRE-DOSE,0,2025-07-17,0
NCSTUDY01,LB,NCSTUDY01-ANIMAL0032,7,GLUC,Glucose,105.0,mg/dL,105.0,105.0,mg/dL,70.0,150.0,N,,,Y,CENTRAL LAB,BLOOD,AUTOMATED,PRE-DOSE,0,2025-07-17,0
NCSTUDY01,LB,NCSTUDY01-ANIMAL0032,8,CREAT,Creatinine,0.5,mg/dL,0.5,0.5,mg/dL,0.2,0.6,N,,,Y,CENTRAL LAB,BLOOD,AUTOMATED,PRE-DOSE,0,2025-07-17,0
NCSTUDY01,LB,NCSTUDY01-ANIMAL0032,9,HGB,Hemoglobin,16.2,g/dL,16.2,16.2,g/dL,12.0,18.0,N,,,N,CENTRAL LAB,BLOOD,AUTOMATED,WEEK 2,14,2025-07-31,14
NCSTUDY01,LB,NCSTUDY01-ANIMAL0032,10,RBC,Red Blood Cell Count,10.0,10^6/µL,10.0,10.0,10^6/µL,6.0,10.0,N,,,N,CENTRAL LAB,BLOOD,AUTOMATED,WEEK 2,14,2025-07-31,14
NCSTUDY01,LB,NCSTUDY01-ANIMAL0032,11,WBC,White Blood Cell Count,13.0,10^3/µL,13.0,13.0,10^3/µL,5.0,15.0,N,,,N,CENTRAL LAB,BLOOD,AUTOMATED,WEEK 2,14,2025-07-31,14
NCSTUDY01,LB,NCSTUDY01-ANIMAL0032,12,PLT,Platelet Count,806.8,10^3/µL,806.8,806.8,10^3/µL,500.0,1300.0,N,,,N,CENTRAL LAB,BLOOD,AUTOMATED,WEEK 2,14,2025-07-31,14
NCSTUDY01,LB,NCSTUDY01-ANIMAL0032,13,ALT,Alanine Aminotransferase,48.9,U/L,48.9,48.9,U/L,20.0,90.0,N,,,N,CENTRAL LAB,BLOOD,AUTOMATED,WEEK 2,14,2025-07-31,14
NCSTUDY01,LB,NCSTUDY01-ANIMAL0032,14,AST,Aspartate Aminotransferase,50.6,U/L,50.6,50.6,U/L,40.0,120.0,N,,,N,CENTRAL LAB,BLOOD,AUTOMATED,WEEK 2,14,2025-07-31,14
NCSTUDY01,LB,NCSTUDY01-ANIMAL0032,15,GLUC,Glucose,115.9,mg/dL,115.9,115.9,mg/dL,70.0,150.0,N,,,N,CENTRAL LAB,BLOOD,AUTOMATED,WEEK 2,14,2025-07-31,14
NCSTUDY01,LB,NCSTUDY01-ANIMAL0032,16,CREAT,Creatinine,0.6,mg/dL,0.6,0.6,mg/dL,0.2,0.6,N,,,N,CENTRAL LAB,BLOOD,AUTOMATED,WEEK 2,14,2025-07-31,14
NCSTUDY01,LB,NCSTUDY01-ANIMAL0032,17,HGB,Hemoglobin,20.1,g/dL,20.1,20.1,g/dL,12.0,18.0,H,,,N,CENTRAL LAB,BLOOD,AUTOMATED,WEEK 4,28,2025-08-14,28
NCSTUDY01,LB,NCSTUDY01-ANIMAL0032,18,RBC,Red Blood Cell Count,7.5,10^6/µL,7.5,7.5,10^6/µL,6.0,10.0,N,,,N,CENTRAL LAB,BLOOD,AUTOMATED,WEEK 4,28,2025-08-14,28
NCSTUDY01,LB,NCSTUDY01-ANIMAL0032,19,WBC,White Blood Cell Count,12.8,10^3/µL,12.8,12.8,10^3/µL,5.0,15.0,N,,,N,CENTRAL LAB,BLOOD,AUTOMATED,WEEK 4,28,2025-08-14,28
NCSTUDY01,LB,NCSTUDY01-ANIMAL0032,20,PLT,Platelet Count,588.2,10^3/µL,588.2,588.2,10^3/µL,500.0,1300.0,N,,,N,CENTRAL LAB,BLOOD,AUTOMATED,WEEK 4,28,2025-08-14,28
NCSTUDY01,LB,NCSTUDY01-ANIMAL0032,21,ALT,Alanine Aminotransferase,33.9,U/L,33.9,33.9,U/L,20.0,90.0,N,,,N,CENTRAL LAB,BLOOD,AUTOMATED,WEEK 4,28,2025-08-14,28
NCSTUDY01,LB,NCSTUDY01-ANIMAL0032,22,AST,Aspartate Aminotransferase,66.1,U/L,66.1,66.1,U/L,40.0,120.0,N,,,N,CENTRAL LAB,BLOOD,AUTOMATED,WEEK 4,28,2025-08-14,28
NCSTUDY01,LB,NCSTUDY01-ANIMAL0032,23,GLUC,Glucose,94.3,mg/dL,94.3,94.3,mg/dL,70.0,150.0,N,,,N,CENTRAL LAB,BLOOD,AUTOMATED,WEEK 4,28,2025-08-14,28
NCSTUDY01,LB,NCSTUDY01-ANIMAL0032,24,CREAT,Creatinine,0.7,mg/dL,0.7,0.7,mg/dL,0.2,0.6,H,,,N,CENTRAL LAB,BLOOD,AUTOMATED,WEEK 4,28,2025-08-14,28
NCSTUDY01,LB,NCSTUDY01-ANIMAL0033,1,HGB,Hemoglobin,17.6,g/dL,17.6,17.6,g/dL,12.0,18.0,N,,,Y,CENTRAL LAB,BLOOD,AUTOMATED,PRE-DOSE,0,2025-07-02,0
NCSTUDY01,LB,NCSTUDY01-ANIMAL0033,2,RBC,Red Blood Cell Count,8.7,10^6/µL,8.7,8.7,10^6/µL,6.0,10.0,N,,,Y,CENTRAL LAB,BLOOD,AUTOMATED,PRE-DOSE,0,2025-07-02,0
NCSTUDY01,LB,NCSTUDY01-ANIMAL0033,3,WBC,White Blood Cell Count,7.7,10^3/µL,7.7,7.7,10^3/µL,5.0,15.0,N,,,Y,CENTRAL LAB,BLOOD,AUTOMATED,PRE-DOSE,0,2025-07-02,0
NCSTUDY01,LB,NCSTUDY01-ANIMAL0033,4,PLT,Platelet Count,799.9,10^3/µL,799.9,799.9,10^3/µL,500.0,1300.0,N,,,Y,CENTRAL LAB,BLOOD,AUTOMATED,PRE-DOSE,0,2025-07-02,0
NCSTUDY01,LB,NCSTUDY01-ANIMAL0033,5,ALT,Alanine Aminotransferase,31.2,U/L,31.2,31.2,U/L,20.0,90.0,N,,,Y,CENTRAL LAB,BLOOD,AUTOMATED,PRE-DOSE,0,2025-07-02,0
NCSTUDY01,LB,NCSTUDY01-ANIMAL0033,6,AST,Aspartate Aminotransferase,51.4,U/L,51.4,51.4,U/L,40.0,120.0,N,,,Y,CENTRAL LAB,BLOOD,AUTOMATED,PRE-DOSE,0,2025-07-02,0
NCSTUDY01,LB,NCSTUDY01-ANIMAL0033,7,GLUC,Glucose,76.4,mg/dL,76.4,76.4,mg/dL,70.0,150.0,N,,,Y,CENTRAL LAB,BLOOD,AUTOMATED,PRE-DOSE,0,2025-07-02,0
NCSTUDY01,LB,NCSTUDY01-ANIMAL0033,8,CREAT,Creatinine,0.6,mg/dL,0.6,0.6,mg/dL,0.2,0.6,N,,,Y,CENTRAL LAB,BLOOD,AUTOMATED,PRE-DOSE,0,2025-07-02,0
NCSTUDY01,LB,NCSTUDY01-ANIMAL0033,9,HGB,Hemoglobin,17.9,g/dL,17.9,17.9,g/dL,12.0,18.0,N,,,N,CENTRAL LAB,BLOOD,AUTOMATED,WEEK 2,14,2025-07-16,14
NCSTUDY01,LB,NCSTUDY01-ANIMAL0033,10,RBC,Red Blood Cell Count,8.9,10^6/µL,8.9,8.9,10^6/µL,6.0,10.0,N,,,N,CENTRAL LAB,BLOOD,AUTOMATED,WEEK 2,14,2025-07-16,14
NCSTUDY01,LB,NCSTUDY01-ANIMAL0033,11,WBC,White Blood Cell Count,8.4,10^3/µL,8.4,8.4,10^3/µL,5.0,15.0,N,,,N,CENTRAL LAB,BLOOD,AUTOMATED,WEEK 2,14,2025-07-16,14
NCSTUDY01,LB,NCSTUDY01-ANIMAL0033,12,PLT,Platelet Count,823.9,10^3/µL,823.9,823.9,10^3/µL,500.0,1300.0,N,,,N,CENTRAL LAB,BLOOD,AUTOMATED,WEEK 2,14,2025-07-16,14
NCSTUDY01,LB,NCSTUDY01-ANIMAL0033,13,ALT,Alanine Aminotransferase,33.5,U/L,33.5,33.5,U/L,20.0,90.0,N,,,N,CENTRAL LAB,BLOOD,AUTOMATED,WEEK 2,14,2025-07-16,14
NCSTUDY01,LB,NCSTUDY01-ANIMAL0033,14,AST,Aspartate Aminotransferase,51.6,U/L,51.6,51.6,U/L,40.0,120.0,N,,,N,CENTRAL LAB,BLOOD,AUTOMATED,WEEK 2,14,2025-07-16,14
NCSTUDY01,LB,NCSTUDY01-ANIMAL0033,15,GLUC,Glucose,72.6,mg/dL,72.6,72.6,mg/dL,70.0,150.0,N,,,N,CENTRAL LAB,BLOOD,AUTOMATED,WEEK 2,14,2025-07-16,14
NCSTUDY01,LB,NCSTUDY01-ANIMAL0033,16,CREAT,Creatinine,0.7,mg/dL,0.7,0.7,mg/dL,0.2,0.6,H,,,N,CENTRAL LAB,BLOOD,AUTOMATED,WEEK 2,14,2025-07-16,14
NCSTUDY01,LB,NCSTUDY01-ANIMAL0033,17,HGB,Hemoglobin,19.7,g/dL,19.7,19.7,g/dL,12.0,18.0,H,,,N,CENTRAL LAB,BLOOD,AUTOMATED,WEEK 4,28,2025-07-30,28
NCSTUDY01,LB,NCSTUDY01-ANIMAL0033,18,RBC,Red Blood Cell Count,9.8,10^6/µL,9.8,9.8,10^6/µL,6.0,10.0,N,,,N,CENTRAL LAB,BLOOD,AUTOMATED,WEEK 4,28,2025-07-30,28
NCSTUDY01,LB,NCSTUDY01-ANIMAL0033,19,WBC,White Blood Cell Count,6.6,10^3/µL,6.6,6.6,10^3/µL,5.0,15.0,N,,,N,CENTRAL LAB,BLOOD,AUTOMATED,WEEK 4,28,2025-07-30,28
NCSTUDY01,LB,NCSTUDY01-ANIMAL0033,20,PLT,Platelet Count,851.7,10^3/µL,851.7,851.7,10^3/µL,500.0,1300.0,N,,,N,CENTRAL LAB,BLOOD,AUTOMATED,WEEK 4,28,2025-07-30,28
NCSTUDY01,LB,NCSTUDY01-ANIMAL0033,21,ALT,Alanine Aminotransferase,35.5,U/L,35.5,35.5,U/L,20.0,90.0,N,,,N,CENTRAL LAB,BLOOD,AUTOMATED,WEEK 4,28,2025-07-30,28
NCSTUDY01,LB,NCSTUDY01-ANIMAL0033,22,AST,Aspartate Aminotransferase,39.0,U/L,39.0,39.0,U/L,40.0,120.0,L,,,N,CENTRAL LAB,BLOOD,AUTOMATED,WEEK 4,28,2025-07-30,28
NCSTUDY01,LB,NCSTUDY01-ANIMAL0033,23,GLUC,Glucose,80.1,mg/dL,80.1,80.1,mg/dL,70.0,150.0,N,,,N,CENTRAL LAB,BLOOD,AUTOMATED,WEEK 4,28,2025-07-30,28
NCSTUDY01,LB,NCSTUDY01-ANIMAL0033,24,CREAT,Creatinine,0.6,mg/dL,0.6,0.6,mg/dL,0.2,0.6,N,,,N,CENTRAL LAB,BLOOD,AUTOMATED,WEEK 4,28,2025-07-30,28
NCSTUDY01,LB,NCSTUDY01-ANIMAL0034,1,HGB,Hemoglobin,14.5,g/dL,14.5,14.5,g/dL,12.0,18.0,N,,,Y,CENTRAL LAB,BLOOD,AUTOMATED,PRE-DOSE,0,2025-08-07,0
NCSTUDY01,LB,NCSTUDY01-ANIMAL0034,2,RBC,Red Blood Cell Count,7.6,10^6/µL,7.6,7.6,10^6/µL,6.0,10.0,N,,,Y,CENTRAL LAB,BLOOD,AUTOMATED,PRE-DOSE,0,2025-08-07,0
NCSTUDY01,LB,NCSTUDY01-ANIMAL0034,3,WBC,White Blood Cell Count,8.2,10^3/µL,8.2,8.2,10^3/µL,5.0,15.0,N,,,Y,CENTRAL LAB,BLOOD,AUTOMATED,PRE-DOSE,0,2025-08-07,0
NCSTUDY01,LB,NCSTUDY01-ANIMAL0034,4,PLT,Platelet Count,531.5,10^3/µL,531.5,531.5,10^3/µL,500.0,1300.0,N,,,Y,CENTRAL LAB,BLOOD,AUTOMATED,PRE-DOSE,0,2025-08-07,0
NCSTUDY01,LB,NCSTUDY01-ANIMAL0034,5,ALT,Alanine Aminotransferase,57.8,U/L,57.8,57.8,U/L,20.0,90.0,N,,,Y,CENTRAL LAB,BLOOD,AUTOMATED,PRE-DOSE,0,2025-08-07,0
NCSTUDY01,LB,NCSTUDY01-ANIMAL0034,6,AST,Aspartate Aminotransferase,104.8,U/L,104.8,104.8,U/L,40.0,120.0,N,,,Y,CENTRAL LAB,BLOOD,AUTOMATED,PRE-DOSE,0,2025-08-07,0
NCSTUDY01,LB,NCSTUDY01-ANIMAL0034,7,GLUC,Glucose,111.1,mg/dL,111.1,111.1,mg/dL,70.0,150.0,N,,,Y,CENTRAL LAB,BLOOD,AUTOMATED,PRE-DOSE,0,2025-08-07,0
NCSTUDY01,LB,NCSTUDY01-ANIMAL0034,8,CREAT,Creatinine,0.5,mg/dL,0.5,0.5,mg/dL,0.2,0.6,N,,,Y,CENTRAL LAB,BLOOD,AUTOMATED,PRE-DOSE,0,2025-08-07,0
NCSTUDY01,LB,NCSTUDY01-ANIMAL0034,9,HGB,Hemoglobin,14.0,g/dL,14.0,14.0,g/dL,12.0,18.0,N,,,N,CENTRAL LAB,BLOOD,AUTOMATED,WEEK 2,14,2025-08-21,14
NCSTUDY01,LB,NCSTUDY01-ANIMAL0034,10,RBC,Red Blood Cell Count,6.8,10^6/µL,6.8,6.8,10^6/µL,6.0,10.0,N,,,N,CENTRAL LAB,BLOOD,AUTOMATED,WEEK 2,14,2025-08-21,14
NCSTUDY01,LB,NCSTUDY01-ANIMAL0034,11,WBC,White Blood Cell Count,8.2,10^3/µL,8.2,8.2,10^3/µL,5.0,15.0,N,,,N,CENTRAL LAB,BLOOD,AUTOMATED,WEEK 2,14,2025-08-21,14
NCSTUDY01,LB,NCSTUDY01-ANIMAL0034,12,PLT,Platelet Count,543.0,10^3/µL,543.0,543.0,10^3/µL,500.0,1300.0,N,,,N,CENTRAL LAB,BLOOD,AUTOMATED,WEEK 2,14,2025-08-21,14
NCSTUDY01,LB,NCSTUDY01-ANIMAL0034,13,ALT,Alanine Aminotransferase,66.1,U/L,66.1,66.1,U/L,20.0,90.0,N,,,N,CENTRAL LAB,BLOOD,AUTOMATED,WEEK 2,14,2025-08-21,14
NCSTUDY01,LB,NCSTUDY01-ANIMAL0034,14,AST,Aspartate Aminotransferase,111.8,U/L,111.8,111.8,U/L,40.0,120.0,N,,,N,CENTRAL LAB,BLOOD,AUTOMATED,WEEK 2,14,2025-08-21,14
NCSTUDY01,LB,NCSTUDY01-ANIMAL0034,15,GLUC,Glucose,109.9,mg/dL,109.9,109.9,mg/dL,70.0,150.0,N,,,N,CENTRAL LAB,BLOOD,AUTOMATED,WEEK 2,14,2025-08-21,14
NCSTUDY01,LB,NCSTUDY01-ANIMAL0034,16,CREAT,Creatinine,0.5,mg/dL,0.5,0.5,mg/dL,0.2,0.6,N,,,N,CENTRAL LAB,BLOOD,AUTOMATED,WEEK 2,14,2025-08-21,14
NCSTUDY01,LB,NCSTUDY01-ANIMAL0034,17,HGB,Hemoglobin,14.8,g/dL,14.8,14.8,g/dL,12.0,18.0,N,,,N,CENTRAL LAB,BLOOD,AUTOMATED,WEEK 4,28,2025-09-04,28
NCSTUDY01,LB,NCSTUDY01-ANIMAL0034,18,RBC,Red Blood Cell Count,6.3,10^6/µL,6.3,6.3,10^6/µL,6.0,10.0,N,,,N,CENTRAL LAB,BLOOD,AUTOMATED,WEEK 4,28,2025-09-04,28
NCSTUDY01,LB,NCSTUDY01-ANIMAL0034,19,WBC,White Blood Cell Count,8.5,10^3/µL,8.5,8.5,10^3/µL,5.0,15.0,N,,,N,CENTRAL LAB,BLOOD,AUTOMATED,WEEK 4,28,2025-09-04,28
NCSTUDY01,LB,NCSTUDY01-ANIMAL0034,20,PLT,Platelet Count,489.6,10^3/µL,489.6,489.6,10^3/µL,500.0,1300.0,L,,,N,CENTRAL LAB,BLOOD,AUTOMATED,WEEK 4,28,2025-09-04,28
NCSTUDY01,LB,NCSTUDY01-ANIMAL0034,21,ALT,Alanine Aminotransferase,68.3,U/L,68.3,68.3,U/L,20.0,90.0,N,,,N,CENTRAL LAB,BLOOD,AUTOMATED,WEEK 4,28,2025-09-04,28
NCSTUDY01,LB,NCSTUDY01-ANIMAL0034,22,AST,Aspartate Aminotransferase,88.6,U/L,88.6,88.6,U/L,40.0,120.0,N,,,N,CENTRAL LAB,BLOOD,AUTOMATED,WEEK 4,28,2025-09-04,28
NCSTUDY01,LB,NCSTUDY01-ANIMAL0034,23,GLUC,Glucose,111.8,mg/dL,111.8,111.8,mg/dL,70.0,150.0,N,,,N,CENTRAL LAB,BLOOD,AUTOMATED,WEEK 4,28,2025-09-04,28
NCSTUDY01,LB,NCSTUDY01-ANIMAL0034,24,CREAT,Creatinine,0.4,mg/dL,0.4,0.4,mg/dL,0.2,0.6,N,,,N,CENTRAL LAB,BLOOD,AUTOMATED,WEEK 4,28,2025-09-04,28
NCSTUDY01,LB,NCSTUDY01-ANIMAL0035,1,HGB,Hemoglobin,13.2,g/dL,13.2,13.2,g/dL,12.0,18.0,N,,,Y,CENTRAL LAB,BLOOD,AUTOMATED,PRE-DOSE,0,2025-07-12,0
NCSTUDY01,LB,NCSTUDY01-ANIMAL0035,2,RBC,Red Blood Cell Count,6.5,10^6/µL,6.5,6.5,10^6/µL,6.0,10.0,N,,,Y,CENTRAL LAB,BLOOD,AUTOMATED,PRE-DOSE,0,2025-07-12,0
NCSTUDY01,LB,NCSTUDY01-ANIMAL0035,3,WBC,White Blood Cell Count,13.2,10^3/µL,13.2,13.2,10^3/µL,5.0,15.0,N,,,Y,CENTRAL LAB,BLOOD,AUTOMATED,PRE-DOSE,0,2025-07-12,0
NCSTUDY01,LB,NCSTUDY01-ANIMAL0035,4,PLT,Platelet Count,1225.2,10^3/µL,1225.2,1225.2,10^3/µL,500.0,1300.0,N,,,Y,CENTRAL LAB,BLOOD,AUTOMATED,PRE-DOSE,0,2025-07-12,0
NCSTUDY01,LB,NCSTUDY01-ANIMAL0035,5,ALT,Alanine Aminotransferase,81.0,U/L,81.0,81.0,U/L,20.0,90.0,N,,,Y,CENTRAL LAB,BLOOD,AUTOMATED,PRE-DOSE,0,2025-07-12,0
NCSTUDY01,LB,NCSTUDY01-ANIMAL0035,6,AST,Aspartate Aminotransferase,76.9,U/L,76.9,76.9,U/L,40.0,120.0,N,,,Y,CENTRAL LAB,BLOOD,AUTOMATED,PRE-DOSE,0,2025-07-12,0
NCSTUDY01,LB,NCSTUDY01-ANIMAL0035,7,GLUC,Glucose,82.8,mg/dL,82.8,82.8,mg/dL,70.0,150.0,N,,,Y,CENTRAL LAB,BLOOD,AUTOMATED,PRE-DOSE,0,2025-07-12,0
NCSTUDY01,LB,NCSTUDY01-ANIMAL0035,8,CREAT,Creatinine,0.4,mg/dL,0.4,0.4,mg/dL,0.2,0.6,N,,,Y,CENTRAL LAB,BLOOD,AUTOMATED,PRE-DOSE,0,2025-07-12,0
NCSTUDY01,LB,NCSTUDY01-ANIMAL0035,9,HGB,Hemoglobin,12.2,g/dL,12.2,12.2,g/dL,12.0,18.0,N,,,N,CENTRAL LAB,BLOOD,AUTOMATED,WEEK 2,14,2025-07-26,14
NCSTUDY01,LB,NCSTUDY01-ANIMAL0035,10,RBC,Red Blood Cell Count,6.0,10^6/µL,6.0,6.0,10^6/µL,6.0,10.0,L,,,N,CENTRAL LAB,BLOOD,AUTOMATED,WEEK 2,14,2025-07-26,14
NCSTUDY01,LB,NCSTUDY01-ANIMAL0035,11,WBC,White Blood Cell Count,12.6,10^3/µL,12.6,12.6,10^3/µL,5.0,15.0,N,,,N,CENTRAL LAB,BLOOD,AUTOMATED,WEEK 2,14,2025-07-26,14
NCSTUDY01,LB,NCSTUDY01-ANIMAL0035,12,PLT,Platelet Count,1231.3,10^3/µL,1231.3,1231.3,10^3/µL,500.0,1300.0,N,,,N,CENTRAL LAB,BLOOD,AUTOMATED,WEEK 2,14,2025-07-26,14
NCSTUDY01,LB,NCSTUDY01-ANIMAL0035,13,ALT,Alanine Aminotransferase,79.4,U/L,79.4,79.4,U/L,20.0,90.0,N,,,N,CENTRAL LAB,BLOOD,AUTOMATED,WEEK 2,14,2025-07-26,14
NCSTUDY01,LB,NCSTUDY01-ANIMAL0035,14,AST,Aspartate Aminotransferase,75.8,U/L,75.8,75.8,U/L,40.0,120.0,N,,,N,CENTRAL LAB,BLOOD,AUTOMATED,WEEK 2,14,2025-07-26,14
NCSTUDY01,LB,NCSTUDY01-ANIMAL0035,15,GLUC,Glucose,95.1,mg/dL,95.1,95.1,mg/dL,70.0,150.0,N,,,N,CENTRAL LAB,BLOOD,AUTOMATED,WEEK 2,14,2025-07-26,14
NCSTUDY01,LB,NCSTUDY01-ANIMAL0035,16,CREAT,Creatinine,0.4,mg/dL,0.4,0.4,mg/dL,0.2,0.6,N,,,N,CENTRAL LAB,BLOOD,AUTOMATED,WEEK 2,14,2025-07-26,14
NCSTUDY01,LB,NCSTUDY01-ANIMAL0035,17,HGB,Hemoglobin,13.3,g/dL,13.3,13.3,g/dL,12.0,18.0,N,,,N,CENTRAL LAB,BLOOD,AUTOMATED,WEEK 4,28,2025-08-09,28
NCSTUDY01,LB,NCSTUDY01-ANIMAL0035,18,RBC,Red Blood Cell Count,6.5,10^6/µL,6.5,6.5,10^6/µL,6.0,10.0,N,,,N,CENTRAL LAB,BLOOD,AUTOMATED,WEEK 4,28,2025-08-09,28
NCSTUDY01,LB,NCSTUDY01-ANIMAL0035,19,WBC,White Blood Cell Count,13.7,10^3/µL,13.7,13.7,10^3/µL,5.0,15.0,N,,,N,CENTRAL LAB,BLOOD,AUTOMATED,WEEK 4,28,2025-08-09,28
NCSTUDY01,LB,NCSTUDY01-ANIMAL0035,20,PLT,Platelet Count,1255.2,10^3/µL,1255.2,1255.2,10^3/µL,500.0,1300.0,N,,,N,CENTRAL LAB,BLOOD,AUTOMATED,WEEK 4,28,2025-08-09,28
NCSTUDY01,LB,NCSTUDY01-ANIMAL0035,21,ALT,Alanine Aminotransferase,79.2,U/L,79.2,79.2,U/L,20.0,90.0,N,,,N,CENTRAL LAB,BLOOD,AUTOMATED,WEEK 4,28,2025-08-09,28
NCSTUDY01,LB,NCSTUDY01-ANIMAL0035,22,AST,Aspartate Aminotransferase,78.8,U/L,78.8,78.8,U/L,40.0,120.0,N,,,N,CENTRAL LAB,BLOOD,AUTOMATED,WEEK 4,28,2025-08-09,28
NCSTUDY01,LB,NCSTUDY01-ANIMAL0035,23,GLUC,Glucose,86.3,mg/dL,86.3,86.3,mg/dL,70.0,150.0,N,,,N,CENTRAL LAB,BLOOD,AUTOMATED,WEEK 4,28,2025-08-09,28
NCSTUDY01,LB,NCSTUDY01-ANIMAL0035,24,CREAT,Creatinine,0.4,mg/dL,0.4,0.4,mg/dL,0.2,0.6,N,,,N,CENTRAL LAB,BLOOD,AUTOMATED,WEEK 4,28,2025-08-09,28
NCSTUDY01,LB,NCSTUDY01-ANIMAL0036,1,HGB,Hemoglobin,16.6,g/dL,16.6,16.6,g/dL,12.0,18.0,N,,,Y,CENTRAL LAB,BLOOD,AUTOMATED,PRE-DOSE,0,2025-08-02,0
NCSTUDY01,LB,NCSTUDY01-ANIMAL0036,2,RBC,Red Blood Cell Count,7.9,10^6/µL,7.9,7.9,10^6/µL,6.0,10.0,N,,,Y,CENTRAL LAB,BLOOD,AUTOMATED,PRE-DOSE,0,2025-08-02,0
NCSTUDY01,LB,NCSTUDY01-ANIMAL0036,3,WBC,White Blood Cell Count,11.0,10^3/µL,11.0,11.0,10^3/µL,5.0,15.0,N,,,Y,CENTRAL LAB,BLOOD,AUTOMATED,PRE-DOSE,0,2025-08-02,0
NCSTUDY01,LB,NCSTUDY01-ANIMAL0036,4,PLT,Platelet Count,867.3,10^3/µL,867.3,867.3,10^3/µL,500.0,1300.0,N,,,Y,CENTRAL LAB,BLOOD,AUTOMATED,PRE-DOSE,0,2025-08-02,0
NCSTUDY01,LB,NCSTUDY01-ANIMAL0036,5,ALT,Alanine Aminotransferase,71.8,U/L,71.8,71.8,U/L,20.0,90.0,N,,,Y,CENTRAL LAB,BLOOD,AUTOMATED,PRE-DOSE,0,2025-08-02,0
NCSTUDY01,LB,NCSTUDY01-ANIMAL0036,6,AST,Aspartate Aminotransferase,71.5,U/L,71.5,71.5,U/L,40.0,120.0,N,,,Y,CENTRAL LAB,BLOOD,AUTOMATED,PRE-DOSE,0,2025-08-02,0
NCSTUDY01,LB,NCSTUDY01-ANIMAL0036,7,GLUC,Glucose,136.5,mg/dL,136.5,136.5,mg/dL,70.0,150.0,N,,,Y,CENTRAL LAB,BLOOD,AUTOMATED,PRE-DOSE,0,2025-08-02,0
NCSTUDY01,LB,NCSTUDY01-ANIMAL0036,8,CREAT,Creatinine,0.3,mg/dL,0.3,0.3,mg/dL,0.2,0.6,N,,,Y,CENTRAL LAB,BLOOD,AUTOMATED,PRE-DOSE,0,2025-08-02,0
NCSTUDY01,LB,NCSTUDY01-ANIMAL0036,9,HGB,Hemoglobin,17.4,g/dL,17.4,17.4,g/dL,12.0,18.0,N,,,N,CENTRAL LAB,BLOOD,AUTOMATED,WEEK 2,14,2025-08-16,14
NCSTUDY01,LB,NCSTUDY01-ANIMAL0036,10,RBC,Red Blood Cell Count,8.7,10^6/µL,8.7,8.7,10^6/µL,6.0,10.0,N,,,N,CENTRAL LAB,BLOOD,AUTOMATED,WEEK 2,14,2025-08-16,14
NCSTUDY01,LB,NCSTUDY01-ANIMAL0036,11,WBC,White Blood Cell Count,10.8,10^3/µL,10.8,10.8,10^3/µL,5.0,15.0,N,,,N,CENTRAL LAB,BLOOD,AUTOMATED,WEEK 2,14,2025-08-16,14
NCSTUDY01,LB,NCSTUDY01-ANIMAL0036,12,PLT,Platelet Count,952.9,10^3/µL,952.9,952.9,10^3/µL,500.0,1300.0,N,,,N,CENTRAL LAB,BLOOD,AUTOMATED,WEEK 2,14,2025-08-16,14
NCSTUDY01,LB,NCSTUDY01-ANIMAL0036,13,ALT,Alanine Aminotransferase,62.1,U/L,62.1,62.1,U/L,20.0,90.0,N,,,N,CENTRAL LAB,BLOOD,AUTOMATED,WEEK 2,14,2025-08-16,14
NCSTUDY01,LB,NCSTUDY01-ANIMAL0036,14,AST,Aspartate Aminotransferase,66.7,U/L,66.7,66.7,U/L,40.0,120.0,N,,,N,CENTRAL LAB,BLOOD,AUTOMATED,WEEK 2,14,2025-08-16,14
NCSTUDY01,LB,NCSTUDY01-ANIMAL0036,15,GLUC,Glucose,133.8,mg/dL,133.8,133.8,mg/dL,70.0,150.0,N,,,N,CENTRAL LAB,BLOOD,AUTOMATED,WEEK 2,14,2025-08-16,14
NCSTUDY01,LB,NCSTUDY01-ANIMAL0036,16,CREAT,Creatinine,0.3,mg/dL,0.3,0.3,mg/dL,0.2,0.6,N,,,N,CENTRAL LAB,BLOOD,AUTOMATED,WEEK 2,14,2025-08-16,14
NCSTUDY01,LB,NCSTUDY01-ANIMAL0036,17,HGB,Hemoglobin,18.5,g/dL,18.5,18.5,g/dL,12.0,18.0,H,,,N,CENTRAL LAB,BLOOD,AUTOMATED,WEEK 4,28,2025-08-30,28
NCSTUDY01,LB,NCSTUDY01-ANIMAL0036,18,RBC,Red Blood Cell Count,6.9,10^6/µL,6.9,6.9,10^6/µL,6.0,10.0,N,,,N,CENTRAL LAB,BLOOD,AUTOMATED,WEEK 4,28,2025-08-30,28
NCSTUDY01,LB,NCSTUDY01-ANIMAL0036,19,WBC,White Blood Cell Count,9.0,10^3/µL,9.0,9.0,10^3/µL,5.0,15.0,N,,,N,CENTRAL LAB,BLOOD,AUTOMATED,WEEK 4,28,2025-08-30,28
NCSTUDY01,LB,NCSTUDY01-ANIMAL0036,20,PLT,Platelet Count,815.2,10^3/µL,815.2,815.2,10^3/µL,500.0,1300.0,N,,,N,CENTRAL LAB,BLOOD,AUTOMATED,WEEK 4,28,2025-08-30,28
NCSTUDY01,LB,NCSTUDY01-ANIMAL0036,21,ALT,Alanine Aminotransferase,85.1,U/L,85.1,85.1,U/L,20.0,90.0,N,,,N,CENTRAL LAB,BLOOD,AUTOMATED,WEEK 4,28,2025-08-30,28
NCSTUDY01,LB,NCSTUDY01-ANIMAL0036,22,AST,Aspartate Aminotransferase,84.1,U/L,84.1,84.1,U/L,40.0,120.0,N,,,N,CENTRAL LAB,BLOOD,AUTOMATED,WEEK 4,28,2025-08-30,28
NCSTUDY01,LB,NCSTUDY01-ANIMAL0036,23,GLUC,Glucose,142.7,mg/dL,142.7,142.7,mg/dL,70.0,150.0,N,,,N,CENTRAL LAB,BLOOD,AUTOMATED,WEEK 4,28,2025-08-30,28
NCSTUDY01,LB,NCSTUDY01-ANIMAL0036,24,CREAT,Creatinine,0.3,mg/dL,0.3,0.3,mg/dL,0.2,0.6,N,,,N,CENTRAL LAB,BLOOD,AUTOMATED,WEEK 4,28,2025-08-30,28
NCSTUDY01,LB,NCSTUDY01-ANIMAL0037,1,HGB,Hemoglobin,14.2,g/dL,14.2,14.2,g/dL,12.0,18.0,N,,,Y,CENTRAL LAB,BLOOD,AUTOMATED,PRE-DOSE,0,2025-09-25,0
NCSTUDY01,LB,NCSTUDY01-ANIMAL0037,2,RBC,Red Blood Cell Count,8.7,10^6/µL,8.7,8.7,10^6/µL,6.0,10.0,N,,,Y,CENTRAL LAB,BLOOD,AUTOMATED,PRE-DOSE,0,2025-09-25,0
NCSTUDY01,LB,NCSTUDY01-ANIMAL0037,3,WBC,White Blood Cell Count,14.4,10^3/µL,14.4,14.4,10^3/µL,5.0,15.0,N,,,Y,CENTRAL LAB,BLOOD,AUTOMATED,PRE-DOSE,0,2025-09-25,0
NCSTUDY01,LB,NCSTUDY01-ANIMAL0037,4,PLT,Platelet Count,930.6,10^3/µL,930.6,930.6,10^3/µL,500.0,1300.0,N,,,Y,CENTRAL LAB,BLOOD,AUTOMATED,PRE-DOSE,0,2025-09-25,0
NCSTUDY01,LB,NCSTUDY01-ANIMAL0037,5,ALT,Alanine Aminotransferase,24.5,U/L,24.5,24.5,U/L,20.0,90.0,N,,,Y,CENTRAL LAB,BLOOD,AUTOMATED,PRE-DOSE,0,2025-09-25,0
NCSTUDY01,LB,NCSTUDY01-ANIMAL0037,6,AST,Aspartate Aminotransferase,78.1,U/L,78.1,78.1,U/L,40.0,120.0,N,,,Y,CENTRAL LAB,BLOOD,AUTOMATED,PRE-DOSE,0,2025-09-25,0
NCSTUDY01,LB,NCSTUDY01-ANIMAL0037,7,GLUC,Glucose,75.2,mg/dL,75.2,75.2,mg/dL,70.0,150.0,N,,,Y,CENTRAL LAB,BLOOD,AUTOMATED,PRE-DOSE,0,2025-09-25,0
NCSTUDY01,LB,NCSTUDY01-ANIMAL0037,8,CREAT,Creatinine,0.6,mg/dL,0.6,0.6,mg/dL,0.2,0.6,N,,,Y,CENTRAL LAB,BLOOD,AUTOMATED,PRE-DOSE,0,2025-09-25,0
NCSTUDY01,LB,NCSTUDY01-ANIMAL0037,9,HGB,Hemoglobin,14.4,g/dL,14.4,14.4,g/dL,12.0,18.0,N,,,N,CENTRAL LAB,BLOOD,AUTOMATED,WEEK 2,14,2025-10-09,14
NCSTUDY01,LB,NCSTUDY01-ANIMAL0037,10,RBC,Red Blood Cell Count,9.8,10^6/µL,9.8,9.8,10^6/µL,6.0,10.0,N,,,N,CENTRAL LAB,BLOOD,AUTOMATED,WEEK 2,14,2025-10-09,14
NCSTUDY01,LB,NCSTUDY01-ANIMAL0037,11,WBC,White Blood Cell Count,13.6,10^3/µL,13.6,13.6,10^3/µL,5.0,15.0,N,,,N,CENTRAL LAB,BLOOD,AUTOMATED,WEEK 2,14,2025-10-09,14
NCSTUDY01,LB,NCSTUDY01-ANIMAL0037,12,PLT,Platelet Count,824.8,10^3/µL,824.8,824.8,10^3/µL,500.0,1300.0,N,,,N,CENTRAL LAB,BLOOD,AUTOMATED,WEEK 2,14,2025-10-09,14
NCSTUDY01,LB,NCSTUDY01-ANIMAL0037,13,ALT,Alanine Aminotransferase,28.7,U/L,28.7,28.7,U/L,20.0,90.0,N,,,N,CENTRAL LAB,BLOOD,AUTOMATED,WEEK 2,14,2025-10-09,14
NCSTUDY01,LB,NCSTUDY01-ANIMAL0037,14,AST,Aspartate Aminotransferase,79.9,U/L,79.9,79.9,U/L,40.0,120.0,N,,,N,CENTRAL LAB,BLOOD,AUTOMATED,WEEK 2,14,2025-10-09,14
NCSTUDY01,LB,NCSTUDY01-ANIMAL0037,15,GLUC,Glucose,90.0,mg/dL,90.0,90.0,mg/dL,70.0,150.0,N,,,N,CENTRAL LAB,BLOOD,AUTOMATED,WEEK 2,14,2025-10-09,14
NCSTUDY01,LB,NCSTUDY01-ANIMAL0037,16,CREAT,Creatinine,0.5,mg/dL,0.5,0.5,mg/dL,0.2,0.6,N,,,N,CENTRAL LAB,BLOOD,AUTOMATED,WEEK 2,14,2025-10-09,14
NCSTUDY01,LB,NCSTUDY01-ANIMAL0037,17,HGB,Hemoglobin,12.1,g/dL,12.1,12.1,g/dL,12.0,18.0,N,,,N,CENTRAL LAB,BLOOD,AUTOMATED,WEEK 4,28,2025-10-23,28
NCSTUDY01,LB,NCSTUDY01-ANIMAL0037,18,RBC,Red Blood Cell Count,8.8,10^6/µL,8.8,8.8,10^6/µL,6.0,10.0,N,,,N,CENTRAL LAB,BLOOD,AUTOMATED,WEEK 4,28,2025-10-23,28
NCSTUDY01,LB,NCSTUDY01-ANIMAL0037,19,WBC,White Blood Cell Count,17.6,10^3/µL,17.6,17.6,10^3/µL,5.0,15.0,H,,,N,CENTRAL LAB,BLOOD,AUTOMATED,WEEK 4,28,2025-10-23,28
NCSTUDY01,LB,NCSTUDY01-ANIMAL0037,20,PLT,Platelet Count,993.9,10^3/µL,993.9,993.9,10^3/µL,500.0,1300.0,N,,,N,CENTRAL LAB,BLOOD,AUTOMATED,WEEK 4,28,2025-10-23,28
NCSTUDY01,LB,NCSTUDY01-ANIMAL0037,21,ALT,Alanine Aminotransferase,23.0,U/L,23.0,23.0,U/L,20.0,90.0,N,,,N,CENTRAL LAB,BLOOD,AUTOMATED,WEEK 4,28,2025-10-23,28
NCSTUDY01,LB,NCSTUDY01-ANIMAL0037,22,AST,Aspartate Aminotransferase,89.2,U/L,89.2,89.2,U/L,40.0,120.0,N,,,N,CENTRAL LAB,BLOOD,AUTOMATED,WEEK 4,28,2025-10-23,28
NCSTUDY01,LB,NCSTUDY01-ANIMAL0037,23,GLUC,Glucose,73.3,mg/dL,73.3,73.3,mg/dL,70.0,150.0,N,,,N,CENTRAL LAB,BLOOD,AUTOMATED,WEEK 4,28,2025-10-23,28
NCSTUDY01,LB,NCSTUDY01-ANIMAL0037,24,CREAT,Creatinine,0.6,mg/dL,0.6,0.6,mg/dL,0.2,0.6,N,,,N,CENTRAL LAB,BLOOD,AUTOMATED,WEEK 4,28,2025-10-23,28
NCSTUDY01,LB,NCSTUDY01-ANIMAL0038,1,HGB,Hemoglobin,17.6,g/dL,17.6,17.6,g/dL,12.0,18.0,N,,,Y,CENTRAL LAB,BLOOD,AUTOMATED,PRE-DOSE,0,2025-10-12,0
NCSTUDY01,LB,NCSTUDY01-ANIMAL0038,2,RBC,Red Blood Cell Count,8.2,10^6/µL,8.2,8.2,10^6/µL,6.0,10.0,N,,,Y,CENTRAL LAB,BLOOD,AUTOMATED,PRE-DOSE,0,2025-10-12,0
NCSTUDY01,LB,NCSTUDY01-ANIMAL0038,3,WBC,White Blood Cell Count,12.5,10^3/µL,12.5,12.5,10^3/µL,5.0,15.0,N,,,Y,CENTRAL LAB,BLOOD,AUTOMATED,PRE-DOSE,0,2025-10-12,0
NCSTUDY01,LB,NCSTUDY01-ANIMAL0038,4,PLT,Platelet Count,751.3,10^3/µL,751.3,751.3,10^3/µL,500.0,1300.0,N,,,Y,CENTRAL LAB,BLOOD,AUTOMATED,PRE-DOSE,0,2025-10-12,0
NCSTUDY01,LB,NCSTUDY01-ANIMAL0038,5,ALT,Alanine Aminotransferase,81.8,U/L,81.8,81.8,U/L,20.0,90.0,N,,,Y,CENTRAL LAB,BLOOD,AUTOMATED,PRE-DOSE,0,2025-10-12,0
NCSTUDY01,LB,NCSTUDY01-ANIMAL0038,6,AST,Aspartate Aminotransferase,70.3,U/L,70.3,70.3,U/L,40.0,120.0,N,,,Y,CENTRAL LAB,BLOOD,AUTOMATED,PRE-DOSE,0,2025-10-12,0
NCSTUDY01,LB,NCSTUDY01-ANIMAL0038,7,GLUC,Glucose,128.6,mg/dL,128.6,128.6,mg/dL,70.0,150.0,N,,,Y,CENTRAL LAB,BLOOD,AUTOMATED,PRE-DOSE,0,2025-10-12,0
NCSTUDY01,LB,NCSTUDY01-ANIMAL0038,8,CREAT,Creatinine,0.3,mg/dL,0.3,0.3,mg/dL,0.2,0.6,N,,,Y,CENTRAL LAB,BLOOD,AUTOMATED,PRE-DOSE,0,2025-10-12,0
NCSTUDY01,LB,NCSTUDY01-ANIMAL0038,9,HGB,Hemoglobin,16.7,g/dL,16.7,16.7,g/dL,12.0,18.0,N,,,N,CENTRAL LAB,BLOOD,AUTOMATED,WEEK 2,14,2025-10-26,14
NCSTUDY01,LB,NCSTUDY01-ANIMAL0038,10,RBC,Red Blood Cell Count,7.1,10^6/µL,7.1,7.1,10^6/µL,6.0,10.0,N,,,N,CENTRAL LAB,BLOOD,AUTOMATED,WEEK 2,14,2025-10-26,14
NCSTUDY01,LB,NCSTUDY01-ANIMAL0038,11,WBC,White Blood Cell Count,12.4,10^3/µL,12.4,12.4,10^3/µL,5.0,15.0,N,,,N,CENTRAL LAB,BLOOD,AUTOMATED,WEEK 2,14,2025-10-26,14
NCSTUDY01,LB,NCSTUDY01-ANIMAL0038,12,PLT,Platelet Count,715.3,10^3/µL,715.3,715.3,10^3/µL,500.0,1300.0,N,,,N,CENTRAL LAB,BLOOD,AUTOMATED,WEEK 2,14,2025-10-26,14
NCSTUDY01,LB,NCSTUDY01-ANIMAL0038,13,ALT,Alanine Aminotransferase,88.0,U/L,88.0,88.0,U/L,20.0,90.0,N,,,N,CENTRAL LAB,BLOOD,AUTOMATED,WEEK 2,14,2025-10-26,14
NCSTUDY01,LB,NCSTUDY01-ANIMAL0038,14,AST,Aspartate Aminotransferase,64.8,U/L,64.8,64.8,U/L,40.0,120.0,N,,,N,CENTRAL LAB,BLOOD,AUTOMATED,WEEK 2,14,2025-10-26,14
NCSTUDY01,LB,NCSTUDY01-ANIMAL0038,15,GLUC,Glucose,135.9,mg/dL,135.9,135.9,mg/dL,70.0,150.0,N,,,N,CENTRAL LAB,BLOOD,AUTOMATED,WEEK 2,14,2025-10-26,14
NCSTUDY01,LB,NCSTUDY01-ANIMAL0038,16,CREAT,Creatinine,0.3,mg/dL,0.3,0.3,mg/dL,0.2,0.6,N,,,N,CENTRAL LAB,BLOOD,AUTOMATED,WEEK 2,14,2025-10-26,14
NCSTUDY01,LB,NCSTUDY01-ANIMAL0038,17,HGB,Hemoglobin,16.3,g/dL,16.3,16.3,g/dL,12.0,18.0,N,,,N,CENTRAL LAB,BLOOD,AUTOMATED,WEEK 4,28,2025-11-09,28
NCSTUDY01,LB,NCSTUDY01-ANIMAL0038,18,RBC,Red Blood Cell Count,9.9,10^6/µL,9.9,9.9,10^6/µL,6.0,10.0,N,,,N,CENTRAL LAB,BLOOD,AUTOMATED,WEEK 4,28,2025-11-09,28
NCSTUDY01,LB,NCSTUDY01-ANIMAL0038,19,WBC,White Blood Cell Count,13.9,10^3/µL,13.9,13.9,10^3/µL,5.0,15.0,N,,,N,CENTRAL LAB,BLOOD,AUTOMATED,WEEK 4,28,2025-11-09,28
NCSTUDY01,LB,NCSTUDY01-ANIMAL0038,20,PLT,Platelet Count,626.2,10^3/µL,626.2,626.2,10^3/µL,500.0,1300.0,N,,,N,CENTRAL LAB,BLOOD,AUTOMATED,WEEK 4,28,2025-11-09,28
NCSTUDY01,LB,NCSTUDY01-ANIMAL0038,21,ALT,Alanine Aminotransferase,94.7,U/L,94.7,94.7,U/L,20.0,90.0,H,,,N,CENTRAL LAB,BLOOD,AUTOMATED,WEEK 4,28,2025-11-09,28
NCSTUDY01,LB,NCSTUDY01-ANIMAL0038,22,AST,Aspartate Aminotransferase,70.2,U/L,70.2,70.2,U/L,40.0,120.0,N,,,N,CENTRAL LAB,BLOOD,AUTOMATED,WEEK 4,28,2025-11-09,28
NCSTUDY01,LB,NCSTUDY01-ANIMAL0038,23,GLUC,Glucose,144.7,mg/dL,144.7,144.7,mg/dL,70.0,150.0,N,,,N,CENTRAL LAB,BLOOD,AUTOMATED,WEEK 4,28,2025-11-09,28
NCSTUDY01,LB,NCSTUDY01-ANIMAL0038,24,CREAT,Creatinine,0.3,mg/dL,0.3,0.3,mg/dL,0.2,0.6,N,,,N,CENTRAL LAB,BLOOD,AUTOMATED,WEEK 4,28,2025-11-09,28
NCSTUDY01,LB,NCSTUDY01-ANIMAL0039,1,HGB,Hemoglobin,16.0,g/dL,16.0,16.0,g/dL,12.0,18.0,N,,,Y,CENTRAL LAB,BLOOD,AUTOMATED,PRE-DOSE,0,2025-10-02,0
NCSTUDY01,LB,NCSTUDY01-ANIMAL0039,2,RBC,Red Blood Cell Count,6.9,10^6/µL,6.9,6.9,10^6/µL,6.0,10.0,N,,,Y,CENTRAL LAB,BLOOD,AUTOMATED,PRE-DOSE,0,2025-10-02,0
NCSTUDY01,LB,NCSTUDY01-ANIMAL0039,3,WBC,White Blood Cell Count,11.9,10^3/µL,11.9,11.9,10^3/µL,5.0,15.0,N,,,Y,CENTRAL LAB,BLOOD,AUTOMATED,PRE-DOSE,0,2025-10-02,0
NCSTUDY01,LB,NCSTUDY01-ANIMAL0039,4,PLT,Platelet Count,1030.1,10^3/µL,1030.1,1030.1,10^3/µL,500.0,1300.0,N,,,Y,CENTRAL LAB,BLOOD,AUTOMATED,PRE-DOSE,0,2025-10-02,0
NCSTUDY01,LB,NCSTUDY01-ANIMAL0039,5,ALT,Alanine Aminotransferase,49.2,U/L,49.2,49.2,U/L,20.0,90.0,N,,,Y,CENTRAL LAB,BLOOD,AUTOMATED,PRE-DOSE,0,2025-10-02,0
NCSTUDY01,LB,NCSTUDY01-ANIMAL0039,6,AST,Aspartate Aminotransferase,74.5,U/L,74.5,74.5,U/L,40.0,120.0,N,,,Y,CENTRAL LAB,BLOOD,AUTOMATED,PRE-DOSE,0,2025-10-02,0
NCSTUDY01,LB,NCSTUDY01-ANIMAL0039,7,GLUC,Glucose,74.3,mg/dL,74.3,74.3,mg/dL,70.0,150.0,N,,,Y,CENTRAL LAB,BLOOD,AUTOMATED,PRE-DOSE,0,2025-10-02,0
NCSTUDY01,LB,NCSTUDY01-ANIMAL0039,8,CREAT,Creatinine,0.4,mg/dL,0.4,0.4,mg/dL,0.2,0.6,N,,,Y,CENTRAL LAB,BLOOD,AUTOMATED,PRE-DOSE,0,2025-10-02,0
NCSTUDY01,LB,NCSTUDY01-ANIMAL0039,9,HGB,Hemoglobin,15.4,g/dL,15.4,15.4,g/dL,12.0,18.0,N,,,N,CENTRAL LAB,BLOOD,AUTOMATED,WEEK 2,14,2025-10-16,14
NCSTUDY01,LB,NCSTUDY01-ANIMAL0039,10,RBC,Red Blood Cell Count,6.4,10^6/µL,6.4,6.4,10^6/µL,6.0,10.0,N,,,N,CENTRAL LAB,BLOOD,AUTOMATED,WEEK 2,14,2025-10-16,14
NCSTUDY01,LB,NCSTUDY01-ANIMAL0039,11,WBC,White Blood Cell Count,11.7,10^3/µL,11.7,11.7,10^3/µL,5.0,15.0,N,,,N,CENTRAL LAB,BLOOD,AUTOMATED,WEEK 2,14,2025-10-16,14
NCSTUDY01,LB,NCSTUDY01-ANIMAL0039,12,PLT,Platelet Count,994.4,10^3/µL,994.4,994.4,10^3/µL,500.0,1300.0,N,,,N,CENTRAL LAB,BLOOD,AUTOMATED,WEEK 2,14,2025-10-16,14
NCSTUDY01,LB,NCSTUDY01-ANIMAL0039,13,ALT,Alanine Aminotransferase,52.0,U/L,52.0,52.0,U/L,20.0,90.0,N,,,N,CENTRAL LAB,BLOOD,AUTOMATED,WEEK 2,14,2025-10-16,14
NCSTUDY01,LB,NCSTUDY01-ANIMAL0039,14,AST,Aspartate Aminotransferase,67.4,U/L,67.4,67.4,U/L,40.0,120.0,N,,,N,CENTRAL LAB,BLOOD,AUTOMATED,WEEK 2,14,2025-10-16,14
NCSTUDY01,LB,NCSTUDY01-ANIMAL0039,15,GLUC,Glucose,69.2,mg/dL,69.2,69.2,mg/dL,70.0,150.0,L,,,N,CENTRAL LAB,BLOOD,AUTOMATED,WEEK 2,14,2025-10-16,14
NCSTUDY01,LB,NCSTUDY01-ANIMAL0039,16,CREAT,Creatinine,0.4,mg/dL,0.4,0.4,mg/dL,0.2,0.6,N,,,N,CENTRAL LAB,BLOOD,AUTOMATED,WEEK 2,14,2025-10-16,14
NCSTUDY01,LB,NCSTUDY01-ANIMAL0039,17,HGB,Hemoglobin,15.0,g/dL,15.0,15.0,g/dL,12.0,18.0,N,,,N,CENTRAL LAB,BLOOD,AUTOMATED,WEEK 4,28,2025-10-30,28
NCSTUDY01,LB,NCSTUDY01-ANIMAL0039,18,RBC,Red Blood Cell Count,7.6,10^6/µL,7.6,7.6,10^6/µL,6.0,10.0,N,,,N,CENTRAL LAB,BLOOD,AUTOMATED,WEEK 4,28,2025-10-30,28
NCSTUDY01,LB,NCSTUDY01-ANIMAL0039,19,WBC,White Blood Cell Count,10.0,10^3/µL,10.0,10.0,10^3/µL,5.0,15.0,N,,,N,CENTRAL LAB,BLOOD,AUTOMATED,WEEK 4,28,2025-10-30,28
NCSTUDY01,LB,NCSTUDY01-ANIMAL0039,20,PLT,Platelet Count,1128.9,10^3/µL,1128.9,1128.9,10^3/µL,500.0,1300.0,N,,,N,CENTRAL LAB,BLOOD,AUTOMATED,WEEK 4,28,2025-10-30,28
NCSTUDY01,LB,NCSTUDY01-ANIMAL0039,21,ALT,Alanine Aminotransferase,61.2,U/L,61.2,61.2,U/L,20.0,90.0,N,,,N,CENTRAL LAB,BLOOD,AUTOMATED,WEEK 4,28,2025-10-30,28
NCSTUDY01,LB,NCSTUDY01-ANIMAL0039,22,AST,Aspartate Aminotransferase,80.1,U/L,80.1,80.1,U/L,40.0,120.0,N,,,N,CENTRAL LAB,BLOOD,AUTOMATED,WEEK 4,28,2025-10-30,28
NCSTUDY01,LB,NCSTUDY01-ANIMAL0039,23,GLUC,Glucose,67.9,mg/dL,67.9,67.9,mg/dL,70.0,150.0,L,,,N,CENTRAL LAB,BLOOD,AUTOMATED,WEEK 4,28,2025-10-30,28
NCSTUDY01,LB,NCSTUDY01-ANIMAL0039,24,CREAT,Creatinine,0.3,mg/dL,0.3,0.3,mg/dL,0.2,0.6,N,,,N,CENTRAL LAB,BLOOD,AUTOMATED,WEEK 4,28,2025-10-30,28
NCSTUDY01,LB,NCSTUDY01-ANIMAL0040,1,HGB,Hemoglobin,12.8,g/dL,12.8,12.8,g/dL,12.0,18.0,N,,,Y,CENTRAL LAB,BLOOD,AUTOMATED,PRE-DOSE,0,2025-10-12,0
NCSTUDY01,LB,NCSTUDY01-ANIMAL0040,2,RBC,Red Blood Cell Count,7.5,10^6/µL,7.5,7.5,10^6/µL,6.0,10.0,N,,,Y,CENTRAL LAB,BLOOD,AUTOMATED,PRE-DOSE,0,2025-10-12,0
NCSTUDY01,LB,NCSTUDY01-ANIMAL0040,3,WBC,White Blood Cell Count,8.3,10^3/µL,8.3,8.3,10^3/µL,5.0,15.0,N,,,Y,CENTRAL LAB,BLOOD,AUTOMATED,PRE-DOSE,0,2025-10-12,0
NCSTUDY01,LB,NCSTUDY01-ANIMAL0040,4,PLT,Platelet Count,541.9,10^3/µL,541.9,541.9,10^3/µL,500.0,1300.0,N,,,Y,CENTRAL LAB,BLOOD,AUTOMATED,PRE-DOSE,0,2025-10-12,0
NCSTUDY01,LB,NCSTUDY01-ANIMAL0040,5,ALT,Alanine Aminotransferase,60.9,U/L,60.9,60.9,U/L,20.0,90.0,N,,,Y,CENTRAL LAB,BLOOD,AUTOMATED,PRE-DOSE,0,2025-10-12,0
NCSTUDY01,LB,NCSTUDY01-ANIMAL0040,6,AST,Aspartate Aminotransferase,90.0,U/L,90.0,90.0,U/L,40.0,120.0,N,,,Y,CENTRAL LAB,BLOOD,AUTOMATED,PRE-DOSE,0,2025-10-12,0
NCSTUDY01,LB,NCSTUDY01-ANIMAL0040,7,GLUC,Glucose,73.3,mg/dL,73.3,73.3,mg/dL,70.0,150.0,N,,,Y,CENTRAL LAB,BLOOD,AUTOMATED,PRE-DOSE,0,2025-10-12,0
NCSTUDY01,LB,NCSTUDY01-ANIMAL0040,8,CREAT,Creatinine,0.3,mg/dL,0.3,0.3,mg/dL,0.2,0.6,N,,,Y,CENTRAL LAB,BLOOD,AUTOMATED,PRE-DOSE,0,2025-10-12,0
NCSTUDY01,LB,NCSTUDY01-ANIMAL0040,9,HGB,Hemoglobin,12.7,g/dL,12.7,12.7,g/dL,12.0,18.0,N,,,N,CENTRAL LAB,BLOOD,AUTOMATED,WEEK 2,14,2025-10-26,14
NCSTUDY01,LB,NCSTUDY01-ANIMAL0040,10,RBC,Red Blood Cell Count,6.7,10^6/µL,6.7,6.7,10^6/µL,6.0,10.0,N,,,N,CENTRAL LAB,BLOOD,AUTOMATED,WEEK 2,14,2025-10-26,14
NCSTUDY01,LB,NCSTUDY01-ANIMAL0040,11,WBC,White Blood Cell Count,7.5,10^3/µL,7.5,7.5,10^3/µL,5.0,15.0,N,,,N,CENTRAL LAB,BLOOD,AUTOMATED,WEEK 2,14,2025-10-26,14
NCSTUDY01,LB,NCSTUDY01-ANIMAL0040,12,PLT,Platelet Count,560.9,10^3/µL,560.9,560.9,10^3/µL,500.0,1300.0,N,,,N,CENTRAL LAB,BLOOD,AUTOMATED,WEEK 2,14,2025-10-26,14
NCSTUDY01,LB,NCSTUDY01-ANIMAL0040,13,ALT,Alanine Aminotransferase,58.4,U/L,58.4,58.4,U/L,20.0,90.0,N,,,N,CENTRAL LAB,BLOOD,AUTOMATED,WEEK 2,14,2025-10-26,14
NCSTUDY01,LB,NCSTUDY01-ANIMAL0040,14,AST,Aspartate Aminotransferase,93.7,U/L,93.7,93.7,U/L,40.0,120.0,N,,,N,CENTRAL LAB,BLOOD,AUTOMATED,WEEK 2,14,2025-10-26,14
NCSTUDY01,LB,NCSTUDY01-ANIMAL0040,15,GLUC,Glucose,80.5,mg/dL,80.5,80.5,mg/dL,70.0,150.0,N,,,N,CENTRAL LAB,BLOOD,AUTOMATED,WEEK 2,14,2025-10-26,14
NCSTUDY01,LB,NCSTUDY01-ANIMAL0040,16,CREAT,Creatinine,0.3,mg/dL,0.3,0.3,mg/dL,0.2,0.6,N,,,N,CENTRAL LAB,BLOOD,AUTOMATED,WEEK 2,14,2025-10-26,14
NCSTUDY01,LB,NCSTUDY01-ANIMAL0040,17,HGB,Hemoglobin,15.9,g/dL,15.9,15.9,g/dL,12.0,18.0,N,,,N,CENTRAL LAB,BLOOD,AUTOMATED,WEEK 4,28,2025-11-09,28
NCSTUDY01,LB,NCSTUDY01-ANIMAL0040,18,RBC,Red Blood Cell Count,6.7,10^6/µL,6.7,6.7,10^6/µL,6.0,10.0,N,,,N,CENTRAL LAB,BLOOD,AUTOMATED,WEEK 4,28,2025-11-09,28
NCSTUDY01,LB,NCSTUDY01-ANIMAL0040,19,WBC,White Blood Cell Count,8.0,10^3/µL,8.0,8.0,10^3/µL,5.0,15.0,N,,,N,CENTRAL LAB,BLOOD,AUTOMATED,WEEK 4,28,2025-11-09,28
NCSTUDY01,LB,NCSTUDY01-ANIMAL0040,20,PLT,Platelet Count,632.5,10^3/µL,632.5,632.5,10^3/µL,500.0,1300.0,N,,,N,CENTRAL LAB,BLOOD,AUTOMATED,WEEK 4,28,2025-11-09,28
NCSTUDY01,LB,NCSTUDY01-ANIMAL0040,21,ALT,Alanine Aminotransferase,66.5,U/L,66.5,66.5,U/L,20.0,90.0,N,,,N,CENTRAL LAB,BLOOD,AUTOMATED,WEEK 4,28,2025-11-09,28
NCSTUDY01,LB,NCSTUDY01-ANIMAL0040,22,AST,Aspartate Aminotransferase,91.5,U/L,91.5,91.5,U/L,40.0,120.0,N,,,N,CENTRAL LAB,BLOOD,AUTOMATED,WEEK 4,28,2025-11-09,28
NCSTUDY01,LB,NCSTUDY01-ANIMAL0040,23,GLUC,Glucose,83.6,mg/dL,83.6,83.6,mg/dL,70.0,150.0,N,,,N,CENTRAL LAB,BLOOD,AUTOMATED,WEEK 4,28,2025-11-09,28
NCSTUDY01,LB,NCSTUDY01-ANIMAL0040,24,CREAT,Creatinine,0.3,mg/dL,0.3,0.3,mg/dL,0.2,0.6,N,,,N,CENTRAL LAB,BLOOD,AUTOMATED,WEEK 4,28,2025-11-09,28
NCSTUDY01,LB,NCSTUDY01-ANIMAL0041,1,HGB,Hemoglobin,11.5,g/dL,11.5,11.5,g/dL,12.0,18.0,L,,,Y,CENTRAL LAB,BLOOD,AUTOMATED,PRE-DOSE,0,2025-06-01,0
NCSTUDY01,LB,NCSTUDY01-ANIMAL0041,2,RBC,Red Blood Cell Count,8.8,10^6/µL,8.8,8.8,10^6/µL,6.0,10.0,N,,,Y,CENTRAL LAB,BLOOD,AUTOMATED,PRE-DOSE,0,2025-06-01,0
NCSTUDY01,LB,NCSTUDY01-ANIMAL0041,3,WBC,White Blood Cell Count,8.6,10^3/µL,8.6,8.6,10^3/µL,5.0,15.0,N,,,Y,CENTRAL LAB,BLOOD,AUTOMATED,PRE-DOSE,0,2025-06-01,0
NCSTUDY01,LB,NCSTUDY01-ANIMAL0041,4,PLT,Platelet Count,697.9,10^3/µL,697.9,697.9,10^3/µL,500.0,1300.0,N,,,Y,CENTRAL LAB,BLOOD,AUTOMATED,PRE-DOSE,0,2025-06-01,0
NCSTUDY01,LB,NCSTUDY01-ANIMAL0041,5,ALT,Alanine Aminotransferase,53.3,U/L,53.3,53.3,U/L,20.0,90.0,N,,,Y,CENTRAL LAB,BLOOD,AUTOMATED,PRE-DOSE,0,2025-06-01,0
NCSTUDY01,LB,NCSTUDY01-ANIMAL0041,6,AST,Aspartate Aminotransferase,113.4,U/L,113.4,113.4,U/L,40.0,120.0,N,,,Y,CENTRAL LAB,BLOOD,AUTOMATED,PRE-DOSE,0,2025-06-01,0
NCSTUDY01,LB,NCSTUDY01-ANIMAL0041,7,GLUC,Glucose,77.6,mg/dL,77.6,77.6,mg/dL,70.0,150.0,N,,,Y,CENTRAL LAB,BLOOD,AUTOMATED,PRE-DOSE,0,2025-06-01,0
NCSTUDY01,LB,NCSTUDY01-ANIMAL0041,8,CREAT,Creatinine,0.2,mg/dL,0.2,0.2,mg/dL,0.2,0.6,N,,,Y,CENTRAL LAB,BLOOD,AUTOMATED,PRE-DOSE,0,2025-06-01,0
NCSTUDY01,LB,NCSTUDY01-ANIMAL0041,9,HGB,Hemoglobin,11.9,g/dL,11.9,11.9,g/dL,12.0,18.0,L,,,N,CENTRAL LAB,BLOOD,AUTOMATED,WEEK 2,14,2025-06-15,14
NCSTUDY01,LB,NCSTUDY01-ANIMAL0041,10,RBC,Red Blood Cell Count,8.9,10^6/µL,8.9,8.9,10^6/µL,6.0,10.0,N,,,N,CENTRAL LAB,BLOOD,AUTOMATED,WEEK 2,14,2025-06-15,14
NCSTUDY01,LB,NCSTUDY01-ANIMAL0041,11,WBC,White Blood Cell Count,8.6,10^3/µL,8.6,8.6,10^3/µL,5.0,15.0,N,,,N,CENTRAL LAB,BLOOD,AUTOMATED,WEEK 2,14,2025-06-15,14
NCSTUDY01,LB,NCSTUDY01-ANIMAL0041,12,PLT,Platelet Count,750.2,10^3/µL,750.2,750.2,10^3/µL,500.0,1300.0,N,,,N,CENTRAL LAB,BLOOD,AUTOMATED,WEEK 2,14,2025-06-15,14
NCSTUDY01,LB,NCSTUDY01-ANIMAL0041,13,ALT,Alanine Aminotransferase,44.6,U/L,44.6,44.6,U/L,20.0,90.0,N,,,N,CENTRAL LAB,BLOOD,AUTOMATED,WEEK 2,14,2025-06-15,14
NCSTUDY01,LB,NCSTUDY01-ANIMAL0041,14,AST,Aspartate Aminotransferase,118.9,U/L,118.9,118.9,U/L,40.0,120.0,N,,,N,CENTRAL LAB,BLOOD,AUTOMATED,WEEK 2,14,2025-06-15,14
NCSTUDY01,LB,NCSTUDY01-ANIMAL0041,15,GLUC,Glucose,81.1,mg/dL,81.1,81.1,mg/dL,70.0,150.0,N,,,N,CENTRAL LAB,BLOOD,AUTOMATED,WEEK 2,14,2025-06-15,14
NCSTUDY01,LB,NCSTUDY01-ANIMAL0041,16,CREAT,Creatinine,0.2,mg/dL,0.2,0.2,mg/dL,0.2,0.6,L,,,N,CENTRAL LAB,BLOOD,AUTOMATED,WEEK 2,14,2025-06-15,14
NCSTUDY01,LB,NCSTUDY01-ANIMAL0041,17,HGB,Hemoglobin,14.1,g/dL,14.1,14.1,g/dL,12.0,18.0,N,,,N,CENTRAL LAB,BLOOD,AUTOMATED,WEEK 4,28,2025-06-29,28
NCSTUDY01,LB,NCSTUDY01-ANIMAL0041,18,RBC,Red Blood Cell Count,7.3,10^6/µL,7.3,7.3,10^6/µL,6.0,10.0,N,,,N,CENTRAL LAB,BLOOD,AUTOMATED,WEEK 4,28,2025-06-29,28
NCSTUDY01,LB,NCSTUDY01-ANIMAL0041,19,WBC,White Blood Cell Count,7.4,10^3/µL,7.4,7.4,10^3/µL,5.0,15.0,N,,,N,CENTRAL LAB,BLOOD,AUTOMATED,WEEK 4,28,2025-06-29,28
NCSTUDY01,LB,NCSTUDY01-ANIMAL0041,20,PLT,Platelet Count,665.8,10^3/µL,665.8,665.8,10^3/µL,500.0,1300.0,N,,,N,CENTRAL LAB,BLOOD,AUTOMATED,WEEK 4,28,2025-06-29,28
NCSTUDY01,LB,NCSTUDY01-ANIMAL0041,21,ALT,Alanine Aminotransferase,55.7,U/L,55.7,55.7,U/L,20.0,90.0,N,,,N,CENTRAL LAB,BLOOD,AUTOMATED,WEEK 4,28,2025-06-29,28
NCSTUDY01,LB,NCSTUDY01-ANIMAL0041,22,AST,Aspartate Aminotransferase,136.1,U/L,136.1,136.1,U/L,40.0,120.0,H,,,N,CENTRAL LAB,BLOOD,AUTOMATED,WEEK 4,28,2025-06-29,28
NCSTUDY01,LB,NCSTUDY01-ANIMAL0041,23,GLUC,Glucose,63.2,mg/dL,63.2,63.2,mg/dL,70.0,150.0,L,,,N,CENTRAL LAB,BLOOD,AUTOMATED,WEEK 4,28,2025-06-29,28
NCSTUDY01,LB,NCSTUDY01-ANIMAL0041,24,CREAT,Creatinine,0.2,mg/dL,0.2,0.2,mg/dL,0.2,0.6,N,,,N,CENTRAL LAB,BLOOD,AUTOMATED,WEEK 4,28,2025-06-29,28
NCSTUDY01,LB,NCSTUDY01-ANIMAL0042,1,HGB,Hemoglobin,15.2,g/dL,15.2,15.2,g/dL,12.0,18.0,N,,,Y,CENTRAL LAB,BLOOD,AUTOMATED,PRE-DOSE,0,2025-06-15,0
NCSTUDY01,LB,NCSTUDY01-ANIMAL0042,2,RBC,Red Blood Cell Count,7.6,10^6/µL,7.6,7.6,10^6/µL,6.0,10.0,N,,,Y,CENTRAL LAB,BLOOD,AUTOMATED,PRE-DOSE,0,2025-06-15,0
NCSTUDY01,LB,NCSTUDY01-ANIMAL0042,3,WBC,White Blood Cell Count,6.1,10^3/µL,6.1,6.1,10^3/µL,5.0,15.0,N,,,Y,CENTRAL LAB,BLOOD,AUTOMATED,PRE-DOSE,0,2025-06-15,0
NCSTUDY01,LB,NCSTUDY01-ANIMAL0042,4,PLT,Platelet Count,721.2,10^3/µL,721.2,721.2,10^3/µL,500.0,1300.0,N,,,Y,CENTRAL LAB,BLOOD,AUTOMATED,PRE-DOSE,0,2025-06-15,0
NCSTUDY01,LB,NCSTUDY01-ANIMAL0042,5,ALT,Alanine Aminotransferase,56.1,U/L,56.1,56.1,U/L,20.0,90.0,N,,,Y,CENTRAL LAB,BLOOD,AUTOMATED,PRE-DOSE,0,2025-06-15,0
NCSTUDY01,LB,NCSTUDY01-ANIMAL0042,6,AST,Aspartate Aminotransferase,106.3,U/L,106.3,106.3,U/L,40.0,120.0,N,,,Y,CENTRAL LAB,BLOOD,AUTOMATED,PRE-DOSE,0,2025-06-15,0
NCSTUDY01,LB,NCSTUDY01-ANIMAL0042,7,GLUC,Glucose,125.2,mg/dL,125.2,125.2,mg/dL,70.0,150.0,N,,,Y,CENTRAL LAB,BLOOD,AUTOMATED,PRE-DOSE,0,2025-06-15,0
NCSTUDY01,LB,NCSTUDY01-ANIMAL0042,8,CREAT,Creatinine,0.2,mg/dL,0.2,0.2,mg/dL,0.2,0.6,N,,,Y,CENTRAL LAB,BLOOD,AUTOMATED,PRE-DOSE,0,2025-06-15,0
NCSTUDY01,LB,NCSTUDY01-ANIMAL0042,9,HGB,Hemoglobin,15.9,g/dL,15.9,15.9,g/dL,12.0,18.0,N,,,N,CENTRAL LAB,BLOOD,AUTOMATED,WEEK 2,14,2025-06-29,14
NCSTUDY01,LB,NCSTUDY01-ANIMAL0042,10,RBC,Red Blood Cell Count,7.9,10^6/µL,7.9,7.9,10^6/µL,6.0,10.0,N,,,N,CENTRAL LAB,BLOOD,AUTOMATED,WEEK 2,14,2025-06-29,14
NCSTUDY01,LB,NCSTUDY01-ANIMAL0042,11,WBC,White Blood Cell Count,6.5,10^3/µL,6.5,6.5,10^3/µL,5.0,15.0,N,,,N,CENTRAL LAB,BLOOD,AUTOMATED,WEEK 2,14,2025-06-29,14
NCSTUDY01,LB,NCSTUDY01-ANIMAL0042,12,PLT,Platelet Count,745.9,10^3/µL,745.9,745.9,10^3/µL,500.0,1300.0,N,,,N,CENTRAL LAB,BLOOD,AUTOMATED,WEEK 2,14,2025-06-29,14
NCSTUDY01,LB,NCSTUDY01-ANIMAL0042,13,ALT,Alanine Aminotransferase,52.8,U/L,52.8,52.8,U/L,20.0,90.0,N,,,N,CENTRAL LAB,BLOOD,AUTOMATED,WEEK 2,14,2025-06-29,14
NCSTUDY01,LB,NCSTUDY01-ANIMAL0042,14,AST,Aspartate Aminotransferase,113.8,U/L,113.8,113.8,U/L,40.0,120.0,N,,,N,CENTRAL LAB,BLOOD,AUTOMATED,WEEK 2,14,2025-06-29,14
NCSTUDY01,LB,NCSTUDY01-ANIMAL0042,15,GLUC,Glucose,119.5,mg/dL,119.5,119.5,mg/dL,70.0,150.0,N,,,N,CENTRAL LAB,BLOOD,AUTOMATED,WEEK 2,14,2025-06-29,14
NCSTUDY01,LB,NCSTUDY01-ANIMAL0042,16,CREAT,Creatinine,0.2,mg/dL,0.2,0.2,mg/dL,0.2,0.6,N,,,N,CENTRAL LAB,BLOOD,AUTOMATED,WEEK 2,14,2025-06-29,14
NCSTUDY01,LB,NCSTUDY01-ANIMAL0042,17,HGB,Hemoglobin,16.1,g/dL,16.1,16.1,g/dL,12.0,18.0,N,,,N,CENTRAL LAB,BLOOD,AUTOMATED,WEEK 4,28,2025-07-13,28
NCSTUDY01,LB,NCSTUDY01-ANIMAL0042,18,RBC,Red Blood Cell Count,8.1,10^6/µL,8.1,8.1,10^6/µL,6.0,10.0,N,,,N,CENTRAL LAB,BLOOD,AUTOMATED,WEEK 4,28,2025-07-13,28
NCSTUDY01,LB,NCSTUDY01-ANIMAL0042,19,WBC,White Blood Cell Count,7.5,10^3/µL,7.5,7.5,10^3/µL,5.0,15.0,N,,,N,CENTRAL LAB,BLOOD,AUTOMATED,WEEK 4,28,2025-07-13,28
NCSTUDY01,LB,NCSTUDY01-ANIMAL0042,20,PLT,Platelet Count,813.1,10^3/µL,813.1,813.1,10^3/µL,500.0,1300.0,N,,,N,CENTRAL LAB,BLOOD,AUTOMATED,WEEK 4,28,2025-07-13,28
NCSTUDY01,LB,NCSTUDY01-ANIMAL0042,21,ALT,Alanine Aminotransferase,53.9,U/L,53.9,53.9,U/L,20.0,90.0,N,,,N,CENTRAL LAB,BLOOD,AUTOMATED,WEEK 4,28,2025-07-13,28
NCSTUDY01,LB,NCSTUDY01-ANIMAL0042,22,AST,Aspartate Aminotransferase,118.0,U/L,118.0,118.0,U/L,40.0,120.0,N,,,N,CENTRAL LAB,BLOOD,AUTOMATED,WEEK 4,28,2025-07-13,28
NCSTUDY01,LB,NCSTUDY01-ANIMAL0042,23,GLUC,Glucose,119.5,mg/dL,119.5,119.5,mg/dL,70.0,150.0,N,,,N,CENTRAL LAB,BLOOD,AUTOMATED,WEEK 4,28,2025-07-13,28
NCSTUDY01,LB,NCSTUDY01-ANIMAL0042,24,CREAT,Creatinine,0.2,mg/dL,0.2,0.2,mg/dL,0.2,0.6,N,,,N,CENTRAL LAB,BLOOD,AUTOMATED,WEEK 4,28,2025-07-13,28
NCSTUDY01,LB,NCSTUDY01-ANIMAL0043,1,HGB,Hemoglobin,15.1,g/dL,15.1,15.1,g/dL,12.0,18.0,N,,,Y,CENTRAL LAB,BLOOD,AUTOMATED,PRE-DOSE,0,2025-05-31,0
NCSTUDY01,LB,NCSTUDY01-ANIMAL0043,2,RBC,Red Blood Cell Count,6.5,10^6/µL,6.5,6.5,10^6/µL,6.0,10.0,N,,,Y,CENTRAL LAB,BLOOD,AUTOMATED,PRE-DOSE,0,2025-05-31,0
NCSTUDY01,LB,NCSTUDY01-ANIMAL0043,3,WBC,White Blood Cell Count,11.3,10^3/µL,11.3,11.3,10^3/µL,5.0,15.0,N,,,Y,CENTRAL LAB,BLOOD,AUTOMATED,PRE-DOSE,0,2025-05-31,0
NCSTUDY01,LB,NCSTUDY01-ANIMAL0043,4,PLT,Platelet Count,1120.5,10^3/µL,1120.5,1120.5,10^3/µL,500.0,1300.0,N,,,Y,CENTRAL LAB,BLOOD,AUTOMATED,PRE-DOSE,0,2025-05-31,0
NCSTUDY01,LB,NCSTUDY01-ANIMAL0043,5,ALT,Alanine Aminotransferase,21.7,U/L,21.7,21.7,U/L,20.0,90.0,N,,,Y,CENTRAL LAB,BLOOD,AUTOMATED,PRE-DOSE,0,2025-05-31,0
NCSTUDY01,LB,NCSTUDY01-ANIMAL0043,6,AST,Aspartate Aminotransferase,90.9,U/L,90.9,90.9,U/L,40.0,120.0,N,,,Y,CENTRAL LAB,BLOOD,AUTOMATED,PRE-DOSE,0,2025-05-31,0
NCSTUDY01,LB,NCSTUDY01-ANIMAL0043,7,GLUC,Glucose,129.7,mg/dL,129.7,129.7,mg/dL,70.0,150.0,N,,,Y,CENTRAL LAB,BLOOD,AUTOMATED,PRE-DOSE,0,2025-05-31,0
NCSTUDY01,LB,NCSTUDY01-ANIMAL0043,8,CREAT,Creatinine,0.3,mg/dL,0.3,0.3,mg/dL,0.2,0.6,N,,,Y,CENTRAL LAB,BLOOD,AUTOMATED,PRE-DOSE,0,2025-05-31,0
NCSTUDY01,LB,NCSTUDY01-ANIMAL0043,9,HGB,Hemoglobin,14.3,g/dL,14.3,14.3,g/dL,12.0,18.0,N,,,N,CENTRAL LAB,BLOOD,AUTOMATED,WEEK 2,14,2025-06-14,14
NCSTUDY01,LB,NCSTUDY01-ANIMAL0043,10,RBC,Red Blood Cell Count,6.6,10^6/µL,6.6,6.6,10^6/µL,6.0,10.0,N,,,N,CENTRAL LAB,BLOOD,AUTOMATED,WEEK 2,14,2025-06-14,14
NCSTUDY01,LB,NCSTUDY01-ANIMAL0043,11,WBC,White Blood Cell Count,11.8,10^3/µL,11.8,11.8,10^3/µL,5.0,15.0,N,,,N,CENTRAL LAB,BLOOD,AUTOMATED,WEEK 2,14,2025-06-14,14
NCSTUDY01,LB,NCSTUDY01-ANIMAL0043,12,PLT,Platelet Count,1034.9,10^3/µL,1034.9,1034.9,10^3/µL,500.0,1300.0,N,,,N,CENTRAL LAB,BLOOD,AUTOMATED,WEEK 2,14,2025-06-14,14
NCSTUDY01,LB,NCSTUDY01-ANIMAL0043,13,ALT,Alanine Aminotransferase,21.8,U/L,21.8,21.8,U/L,20.0,90.0,N,,,N,CENTRAL LAB,BLOOD,AUTOMATED,WEEK 2,14,2025-06-14,14
NCSTUDY01,LB,NCSTUDY01-ANIMAL0043,14,AST,Aspartate Aminotransferase,83.9,U/L,83.9,83.9,U/L,40.0,120.0,N,,,N,CENTRAL LAB,BLOOD,AUTOMATED,WEEK 2,14,2025-06-14,14
NCSTUDY01,LB,NCSTUDY01-ANIMAL0043,15,GLUC,Glucose,135.6,mg/dL,135.6,135.6,mg/dL,70.0,150.0,N,,,N,CENTRAL LAB,BLOOD,AUTOMATED,WEEK 2,14,2025-06-14,14
NCSTUDY01,LB,NCSTUDY01-ANIMAL0043,16,CREAT,Creatinine,0.3,mg/dL,0.3,0.3,mg/dL,0.2,0.6,N,,,N,CENTRAL LAB,BLOOD,AUTOMATED,WEEK 2,14,2025-06-14,14
NCSTUDY01,LB,NCSTUDY01-ANIMAL0043,17,HGB,Hemoglobin,14.8,g/dL,14.8,14.8,g/dL,12.0,18.0,N,,,N,CENTRAL LAB,BLOOD,AUTOMATED,WEEK 4,28,2025-06-28,28
NCSTUDY01,LB,NCSTUDY01-ANIMAL0043,18,RBC,Red Blood Cell Count,6.5,10^6/µL,6.5,6.5,10^6/µL,6.0,10.0,N,,,N,CENTRAL LAB,BLOOD,AUTOMATED,WEEK 4,28,2025-06-28,28
NCSTUDY01,LB,NCSTUDY01-ANIMAL0043,19,WBC,White Blood Cell Count,10.8,10^3/µL,10.8,10.8,10^3/µL,5.0,15.0,N,,,N,CENTRAL LAB,BLOOD,AUTOMATED,WEEK 4,28,2025-06-28,28
NCSTUDY01,LB,NCSTUDY01-ANIMAL0043,20,PLT,Platelet Count,1088.0,10^3/µL,1088.0,1088.0,10^3/µL,500.0,1300.0,N,,,N,CENTRAL LAB,BLOOD,AUTOMATED,WEEK 4,28,2025-06-28,28
NCSTUDY01,LB,NCSTUDY01-ANIMAL0043,21,ALT,Alanine Aminotransferase,21.9,U/L,21.9,21.9,U/L,20.0,90.0,N,,,N,CENTRAL LAB,BLOOD,AUTOMATED,WEEK 4,28,2025-06-28,28
NCSTUDY01,LB,NCSTUDY01-ANIMAL0043,22,AST,Aspartate Aminotransferase,87.6,U/L,87.6,87.6,U/L,40.0,120.0,N,,,N,CENTRAL LAB,BLOOD,AUTOMATED,WEEK 4,28,2025-06-28,28
NCSTUDY01,LB,NCSTUDY01-ANIMAL0043,23,GLUC,Glucose,127.5,mg/dL,127.5,127.5,mg/dL,70.0,150.0,N,,,N,CENTRAL LAB,BLOOD,AUTOMATED,WEEK 4,28,2025-06-28,28
NCSTUDY01,LB,NCSTUDY01-ANIMAL0043,24,CREAT,Creatinine,0.3,mg/dL,0.3,0.3,mg/dL,0.2,0.6,N,,,N,CENTRAL LAB,BLOOD,AUTOMATED,WEEK 4,28,2025-06-28,28
NCSTUDY01,LB,NCSTUDY01-ANIMAL0044,1,HGB,Hemoglobin,15.5,g/dL,15.5,15.5,g/dL,12.0,18.0,N,,,Y,CENTRAL LAB,BLOOD,AUTOMATED,PRE-DOSE,0,2025-07-14,0
NCSTUDY01,LB,NCSTUDY01-ANIMAL0044,2,RBC,Red Blood Cell Count,9.4,10^6/µL,9.4,9.4,10^6/µL,6.0,10.0,N,,,Y,CENTRAL LAB,BLOOD,AUTOMATED,PRE-DOSE,0,2025-07-14,0
NCSTUDY01,LB,NCSTUDY01-ANIMAL0044,3,WBC,White Blood Cell Count,7.1,10^3/µL,7.1,7.1,10^3/µL,5.0,15.0,N,,,Y,CENTRAL LAB,BLOOD,AUTOMATED,PRE-DOSE,0,2025-07-14,0
NCSTUDY01,LB,NCSTUDY01-ANIMAL0044,4,PLT,Platelet Count,1102.0,10^3/µL,1102.0,1102.0,10^3/µL,500.0,1300.0,N,,,Y,CENTRAL LAB,BLOOD,AUTOMATED,PRE-DOSE,0,2025-07-14,0
NCSTUDY01,LB,NCSTUDY01-ANIMAL0044,5,ALT,Alanine Aminotransferase,55.9,U/L,55.9,55.9,U/L,20.0,90.0,N,,,Y,CENTRAL LAB,BLOOD,AUTOMATED,PRE-DOSE,0,2025-07-14,0
NCSTUDY01,LB,NCSTUDY01-ANIMAL0044,6,AST,Aspartate Aminotransferase,71.4,U/L,71.4,71.4,U/L,40.0,120.0,N,,,Y,CENTRAL LAB,BLOOD,AUTOMATED,PRE-DOSE,0,2025-07-14,0
NCSTUDY01,LB,NCSTUDY01-ANIMAL0044,7,GLUC,Glucose,142.7,mg/dL,142.7,142.7,mg/dL,70.0,150.0,N,,,Y,CENTRAL LAB,BLOOD,AUTOMATED,PRE-DOSE,0,2025-07-14,0
NCSTUDY01,LB,NCSTUDY01-ANIMAL0044,8,CREAT,Creatinine,0.3,mg/dL,0.3,0.3,mg/dL,0.2,0.6,N,,,Y,CENTRAL LAB,BLOOD,AUTOMATED,PRE-DOSE,0,2025-07-14,0
NCSTUDY01,LB,NCSTUDY01-ANIMAL0044,9,HGB,Hemoglobin,17.4,g/dL,17.4,17.4,g/dL,12.0,18.0,N,,,N,CENTRAL LAB,BLOOD,AUTOMATED,WEEK 2,14,2025-07-28,14
NCSTUDY01,LB,NCSTUDY01-ANIMAL0044,10,RBC,Red Blood Cell Count,11.4,10^6/µL,11.4,11.4,10^6/µL,6.0,10.0,H,,,N,CENTRAL LAB,BLOOD,AUTOMATED,WEEK 2,14,2025-07-28,14
NCSTUDY01,LB,NCSTUDY01-ANIMAL0044,11,WBC,White Blood Cell Count,6.9,10^3/µL,6.9,6.9,10^3/µL,5.0,15.0,N,,,N,CENTRAL LAB,BLOOD,AUTOMATED,WEEK 2,14,2025-07-28,14
NCSTUDY01,LB,NCSTUDY01-ANIMAL0044,12,PLT,Platelet Count,1135.5,10^3/µL,1135.5,1135.5,10^3/µL,500.0,1300.0,N,,,N,CENTRAL LAB,BLOOD,AUTOMATED,WEEK 2,14,2025-07-28,14
NCSTUDY01,LB,NCSTUDY01-ANIMAL0044,13,ALT,Alanine Aminotransferase,51.0,U/L,51.0,51.0,U/L,20.0,90.0,N,,,N,CENTRAL LAB,BLOOD,AUTOMATED,WEEK 2,14,2025-07-28,14
NCSTUDY01,LB,NCSTUDY01-ANIMAL0044,14,AST,Aspartate Aminotransferase,76.8,U/L,76.8,76.8,U/L,40.0,120.0,N,,,N,CENTRAL LAB,BLOOD,AUTOMATED,WEEK 2,14,2025-07-28,14
NCSTUDY01,LB,NCSTUDY01-ANIMAL0044,15,GLUC,Glucose,130.1,mg/dL,130.1,130.1,mg/dL,70.0,150.0,N,,,N,CENTRAL LAB,BLOOD,AUTOMATED,WEEK 2,14,2025-07-28,14
NCSTUDY01,LB,NCSTUDY01-ANIMAL0044,16,CREAT,Creatinine,0.3,mg/dL,0.3,0.3,mg/dL,0.2,0.6,N,,,N,CENTRAL LAB,BLOOD,AUTOMATED,WEEK 2,14,2025-07-28,14
NCSTUDY01,LB,NCSTUDY01-ANIMAL0044,17,HGB,Hemoglobin,14.2,g/dL,14.2,14.2,g/dL,12.0,18.0,N,,,N,CENTRAL LAB,BLOOD,AUTOMATED,WEEK 4,28,2025-08-11,28
NCSTUDY01,LB,NCSTUDY01-ANIMAL0044,18,RBC,Red Blood Cell Count,8.6,10^6/µL,8.6,8.6,10^6/µL,6.0,10.0,N,,,N,CENTRAL LAB,BLOOD,AUTOMATED,WEEK 4,28,2025-08-11,28
NCSTUDY01,LB,NCSTUDY01-ANIMAL0044,19,WBC,White Blood Cell Count,4.9,10^3/µL,4.9,4.9,10^3/µL,5.0,15.0,L,,,N,CENTRAL LAB,BLOOD,AUTOMATED,WEEK 4,28,2025-08-11,28
NCSTUDY01,LB,NCSTUDY01-ANIMAL0044,20,PLT,Platelet Count,1483.4,10^3/µL,1483.4,1483.4,10^3/µL,500.0,1300.0,H,,,N,CENTRAL LAB,BLOOD,AUTOMATED,WEEK 4,28,2025-08-11,28
NCSTUDY01,LB,NCSTUDY01-ANIMAL0044,21,ALT,Alanine Aminotransferase,57.2,U/L,57.2,57.2,U/L,20.0,90.0,N,,,N,CENTRAL LAB,BLOOD,AUTOMATED,WEEK 4,28,2025-08-11,28
NCSTUDY01,LB,NCSTUDY01-ANIMAL0044,22,AST,Aspartate Aminotransferase,73.6,U/L,73.6,73.6,U/L,40.0,120.0,N,,,N,CENTRAL LAB,BLOOD,AUTOMATED,WEEK 4,28,2025-08-11,28
NCSTUDY01,LB,NCSTUDY01-ANIMAL0044,23,GLUC,Glucose,139.0,mg/dL,139.0,139.0,mg/dL,70.0,150.0,N,,,N,CENTRAL LAB,BLOOD,AUTOMATED,WEEK 4,28,2025-08-11,28
NCSTUDY01,LB,NCSTUDY01-ANIMAL0044,24,CREAT,Creatinine,0.4,mg/dL,0.4,0.4,mg/dL,0.2,0.6,N,,,N,CENTRAL LAB,BLOOD,AUTOMATED,WEEK 4,28,2025-08-11,28
NCSTUDY01,LB,NCSTUDY01-ANIMAL0045,1,HGB,Hemoglobin,12.5,g/dL,12.5,12.5,g/dL,12.0,18.0,N,,,Y,CENTRAL LAB,BLOOD,AUTOMATED,PRE-DOSE,0,2025-08-20,0
NCSTUDY01,LB,NCSTUDY01-ANIMAL0045,2,RBC,Red Blood Cell Count,9.7,10^6/µL,9.7,9.7,10^6/µL,6.0,10.0,N,,,Y,CENTRAL LAB,BLOOD,AUTOMATED,PRE-DOSE,0,2025-08-20,0
NCSTUDY01,LB,NCSTUDY01-ANIMAL0045,3,WBC,White Blood Cell Count,10.8,10^3/µL,10.8,10.8,10^3/µL,5.0,15.0,N,,,Y,CENTRAL LAB,BLOOD,AUTOMATED,PRE-DOSE,0,2025-08-20,0
NCSTUDY01,LB,NCSTUDY01-ANIMAL0045,4,PLT,Platelet Count,1061.8,10^3/µL,1061.8,1061.8,10^3/µL,500.0,1300.0,N,,,Y,CENTRAL LAB,BLOOD,AUTOMATED,PRE-DOSE,0,2025-08-20,0
NCSTUDY01,LB,NCSTUDY01-ANIMAL0045,5,ALT,Alanine Aminotransferase,44.6,U/L,44.6,44.6,U/L,20.0,90.0,N,,,Y,CENTRAL LAB,BLOOD,AUTOMATED,PRE-DOSE,0,2025-08-20,0
NCSTUDY01,LB,NCSTUDY01-ANIMAL0045,6,AST,Aspartate Aminotransferase,96.0,U/L,96.0,96.0,U/L,40.0,120.0,N,,,Y,CENTRAL LAB,BLOOD,AUTOMATED,PRE-DOSE,0,2025-08-20,0
NCSTUDY01,LB,NCSTUDY01-ANIMAL0045,7,GLUC,Glucose,87.8,mg/dL,87.8,87.8,mg/dL,70.0,150.0,N,,,Y,CENTRAL LAB,BLOOD,AUTOMATED,PRE-DOSE,0,2025-08-20,0
NCSTUDY01,LB,NCSTUDY01-ANIMAL0045,8,CREAT,Creatinine,0.5,mg/dL,0.5,0.5,mg/dL,0.2,0.6,N,,,Y,CENTRAL LAB,BLOOD,AUTOMATED,PRE-DOSE,0,2025-08-20,0
NCSTUDY01,LB,NCSTUDY01-ANIMAL0045,9,HGB,Hemoglobin,12.3,g/dL,12.3,12.3,g/dL,12.0,18.0,N,,,N,CENTRAL LAB,BLOOD,AUTOMATED,WEEK 2,14,2025-09-03,14
NCSTUDY01,LB,NCSTUDY01-ANIMAL0045,10,RBC,Red Blood Cell Count,10.1,10^6/µL,10.1,10.1,10^6/µL,6.0,10.0,H,,,N,CENTRAL LAB,BLOOD,AUTOMATED,WEEK 2,14,2025-09-03,14
NCSTUDY01,LB,NCSTUDY01-ANIMAL0045,11,WBC,White Blood Cell Count,10.7,10^3/µL,10.7,10.7,10^3/µL,5.0,15.0,N,,,N,CENTRAL LAB,BLOOD,AUTOMATED,WEEK 2,14,2025-09-03,14
NCSTUDY01,LB,NCSTUDY01-ANIMAL0045,12,PLT,Platelet Count,982.6,10^3/µL,982.6,982.6,10^3/µL,500.0,1300.0,N,,,N,CENTRAL LAB,BLOOD,AUTOMATED,WEEK 2,14,2025-09-03,14
NCSTUDY01,LB,NCSTUDY01-ANIMAL0045,13,ALT,Alanine Aminotransferase,45.6,U/L,45.6,45.6,U/L,20.0,90.0,N,,,N,CENTRAL LAB,BLOOD,AUTOMATED,WEEK 2,14,2025-09-03,14
NCSTUDY01,LB,NCSTUDY01-ANIMAL0045,14,AST,Aspartate Aminotransferase,94.9,U/L,94.9,94.9,U/L,40.0,120.0,N,,,N,CENTRAL LAB,BLOOD,AUTOMATED,WEEK 2,14,2025-09-03,14
NCSTUDY01,LB,NCSTUDY01-ANIMAL0045,15,GLUC,Glucose,88.1,mg/dL,88.1,88.1,mg/dL,70.0,150.0,N,,,N,CENTRAL LAB,BLOOD,AUTOMATED,WEEK 2,14,2025-09-03,14
NCSTUDY01,LB,NCSTUDY01-ANIMAL0045,16,CREAT,Creatinine,0.5,mg/dL,0.5,0.5,mg/dL,0.2,0.6,N,,,N,CENTRAL LAB,BLOOD,AUTOMATED,WEEK 2,14,2025-09-03,14
NCSTUDY01,LB,NCSTUDY01-ANIMAL0045,17,HGB,Hemoglobin,11.6,g/dL,11.6,11.6,g/dL,12.0,18.0,L,,,N,CENTRAL LAB,BLOOD,AUTOMATED,WEEK 4,28,2025-09-17,28
NCSTUDY01,LB,NCSTUDY01-ANIMAL0045,18,RBC,Red Blood Cell Count,10.3,10^6/µL,10.3,10.3,10^6/µL,6.0,10.0,H,,,N,CENTRAL LAB,BLOOD,AUTOMATED,WEEK 4,28,2025-09-17,28
NCSTUDY01,LB,NCSTUDY01-ANIMAL0045,19,WBC,White Blood Cell Count,11.3,10^3/µL,11.3,11.3,10^3/µL,5.0,15.0,N,,,N,CENTRAL LAB,BLOOD,AUTOMATED,WEEK 4,28,2025-09-17,28
NCSTUDY01,LB,NCSTUDY01-ANIMAL0045,20,PLT,Platelet Count,988.1,10^3/µL,988.1,988.1,10^3/µL,500.0,1300.0,N,,,N,CENTRAL LAB,BLOOD,AUTOMATED,WEEK 4,28,2025-09-17,28
NCSTUDY01,LB,NCSTUDY01-ANIMAL0045,21,ALT,Alanine Aminotransferase,47.0,U/L,47.0,47.0,U/L,20.0,90.0,N,,,N,CENTRAL LAB,BLOOD,AUTOMATED,WEEK 4,28,2025-09-17,28
NCSTUDY01,LB,NCSTUDY01-ANIMAL0045,22,AST,Aspartate Aminotransferase,95.2,U/L,95.2,95.2,U/L,40.0,120.0,N,,,N,CENTRAL LAB,BLOOD,AUTOMATED,WEEK 4,28,2025-09-17,28
NCSTUDY01,LB,NCSTUDY01-ANIMAL0045,23,GLUC,Glucose,94.0,mg/dL,94.0,94.0,mg/dL,70.0,150.0,N,,,N,CENTRAL LAB,BLOOD,AUTOMATED,WEEK 4,28,2025-09-17,28
NCSTUDY01,LB,NCSTUDY01-ANIMAL0045,24,CREAT,Creatinine,0.5,mg/dL,0.5,0.5,mg/dL,0.2,0.6,N,,,N,CENTRAL LAB,BLOOD,AUTOMATED,WEEK 4,28,2025-09-17,28
NCSTUDY01,LB,NCSTUDY01-ANIMAL0046,1,HGB,Hemoglobin,12.7,g/dL,12.7,12.7,g/dL,12.0,18.0,N,,,Y,CENTRAL LAB,BLOOD,AUTOMATED,PRE-DOSE,0,2025-07-05,0
NCSTUDY01,LB,NCSTUDY01-ANIMAL0046,2,RBC,Red Blood Cell Count,9.4,10^6/µL,9.4,9.4,10^6/µL,6.0,10.0,N,,,Y,CENTRAL LAB,BLOOD,AUTOMATED,PRE-DOSE,0,2025-07-05,0
NCSTUDY01,LB,NCSTUDY01-ANIMAL0046,3,WBC,White Blood Cell Count,14.0,10^3/µL,14.0,14.0,10^3/µL,5.0,15.0,N,,,Y,CENTRAL LAB,BLOOD,AUTOMATED,PRE-DOSE,0,2025-07-05,0
NCSTUDY01,LB,NCSTUDY01-ANIMAL0046,4,PLT,Platelet Count,916.2,10^3/µL,916.2,916.2,10^3/µL,500.0,1300.0,N,,,Y,CENTRAL LAB,BLOOD,AUTOMATED,PRE-DOSE,0,2025-07-05,0
NCSTUDY01,LB,NCSTUDY01-ANIMAL0046,5,ALT,Alanine Aminotransferase,71.2,U/L,71.2,71.2,U/L,20.0,90.0,N,,,Y,CENTRAL LAB,BLOOD,AUTOMATED,PRE-DOSE,0,2025-07-05,0
NCSTUDY01,LB,NCSTUDY01-ANIMAL0046,6,AST,Aspartate Aminotransferase,50.5,U/L,50.5,50.5,U/L,40.0,120.0,N,,,Y,CENTRAL LAB,BLOOD,AUTOMATED,PRE-DOSE,0,2025-07-05,0
NCSTUDY01,LB,NCSTUDY01-ANIMAL0046,7,GLUC,Glucose,115.1,mg/dL,115.1,115.1,mg/dL,70.0,150.0,N,,,Y,CENTRAL LAB,BLOOD,AUTOMATED,PRE-DOSE,0,2025-07-05,0
NCSTUDY01,LB,NCSTUDY01-ANIMAL0046,8,CREAT,Creatinine,0.6,mg/dL,0.6,0.6,mg/dL,0.2,0.6,N,,,Y,CENTRAL LAB,BLOOD,AUTOMATED,PRE-DOSE,0,2025-07-05,0
NCSTUDY01,LB,NCSTUDY01-ANIMAL0046,9,HGB,Hemoglobin,11.3,g/dL,11.3,11.3,g/dL,12.0,18.0,L,,,N,CENTRAL LAB,BLOOD,AUTOMATED,WEEK 2,14,2025-07-19,14
NCSTUDY01,LB,NCSTUDY01-ANIMAL0046,10,RBC,Red Blood Cell Count,11.4,10^6/µL,11.4,11.4,10^6/µL,6.0,10.0,H,,,N,CENTRAL LAB,BLOOD,AUTOMATED,WEEK 2,14,2025-07-19,14
NCSTUDY01,LB,NCSTUDY01-ANIMAL0046,11,WBC,White Blood Cell Count,13.1,10^3/µL,13.1,13.1,10^3/µL,5.0,15.0,N,,,N,CENTRAL LAB,BLOOD,AUTOMATED,WEEK 2,14,2025-07-19,14
NCSTUDY01,LB,NCSTUDY01-ANIMAL0046,12,PLT,Platelet Count,948.4,10^3/µL,948.4,948.4,10^3/µL,500.0,1300.0,N,,,N,CENTRAL LAB,BLOOD,AUTOMATED,WEEK 2,14,2025-07-19,14
NCSTUDY01,LB,NCSTUDY01-ANIMAL0046,13,ALT,Alanine Aminotransferase,62.4,U/L,62.4,62.4,U/L,20.0,90.0,N,,,N,CENTRAL LAB,BLOOD,AUTOMATED,WEEK 2,14,2025-07-19,14
NCSTUDY01,LB,NCSTUDY01-ANIMAL0046,14,AST,Aspartate Aminotransferase,53.8,U/L,53.8,53.8,U/L,40.0,120.0,N,,,N,CENTRAL LAB,BLOOD,AUTOMATED,WEEK 2,14,2025-07-19,14
NCSTUDY01,LB,NCSTUDY01-ANIMAL0046,15,GLUC,Glucose,103.1,mg/dL,103.1,103.1,mg/dL,70.0,150.0,N,,,N,CENTRAL LAB,BLOOD,AUTOMATED,WEEK 2,14,2025-07-19,14
NCSTUDY01,LB,NCSTUDY01-ANIMAL0046,16,CREAT,Creatinine,0.6,mg/dL,0.6,0.6,mg/dL,0.2,0.6,N,,,N,CENTRAL LAB,BLOOD,AUTOMATED,WEEK 2,14,2025-07-19,14
NCSTUDY01,LB,NCSTUDY01-ANIMAL0046,17,HGB,Hemoglobin,15.7,g/dL,15.7,15.7,g/dL,12.0,18.0,N,,,N,CENTRAL LAB,BLOOD,AUTOMATED,WEEK 4,28,2025-08-02,28
NCSTUDY01,LB,NCSTUDY01-ANIMAL0046,18,RBC,Red Blood Cell Count,8.3,10^6/µL,8.3,8.3,10^6/µL,6.0,10.0,N,,,N,CENTRAL LAB,BLOOD,AUTOMATED,WEEK 4,28,2025-08-02,28
NCSTUDY01,LB,NCSTUDY01-ANIMAL0046,19,WBC,White Blood Cell Count,14.9,10^3/µL,14.9,14.9,10^3/µL,5.0,15.0,N,,,N,CENTRAL LAB,BLOOD,AUTOMATED,WEEK 4,28,2025-08-02,28
NCSTUDY01,LB,NCSTUDY01-ANIMAL0046,20,PLT,Platelet Count,997.0,10^3/µL,997.0,997.0,10^3/µL,500.0,1300.0,N,,,N,CENTRAL LAB,BLOOD,AUTOMATED,WEEK 4,28,2025-08-02,28
NCSTUDY01,LB,NCSTUDY01-ANIMAL0046,21,ALT,Alanine Aminotransferase,48.3,U/L,48.3,48.3,U/L,20.0,90.0,N,,,N,CENTRAL LAB,BLOOD,AUTOMATED,WEEK 4,28,2025-08-02,28
NCSTUDY01,LB,NCSTUDY01-ANIMAL0046,22,AST,Aspartate Aminotransferase,38.3,U/L,38.3,38.3,U/L,40.0,120.0,L,,,N,CENTRAL LAB,BLOOD,AUTOMATED,WEEK 4,28,2025-08-02,28
NCSTUDY01,LB,NCSTUDY01-ANIMAL0046,23,GLUC,Glucose,104.7,mg/dL,104.7,104.7,mg/dL,70.0,150.0,N,,,N,CENTRAL LAB,BLOOD,AUTOMATED,WEEK 4,28,2025-08-02,28
NCSTUDY01,LB,NCSTUDY01-ANIMAL0046,24,CREAT,Creatinine,0.4,mg/dL,0.4,0.4,mg/dL,0.2,0.6,N,,,N,CENTRAL LAB,BLOOD,AUTOMATED,WEEK 4,28,2025-08-02,28
NCSTUDY01,LB,NCSTUDY01-ANIMAL0047,1,HGB,Hemoglobin,18.2,g/dL,18.2,18.2,g/dL,12.0,18.0,H,,,Y,CENTRAL LAB,BLOOD,AUTOMATED,PRE-DOSE,0,2025-07-15,0
NCSTUDY01,LB,NCSTUDY01-ANIMAL0047,2,RBC,Red Blood Cell Count,6.6,10^6/µL,6.6,6.6,10^6/µL,6.0,10.0,N,,,Y,CENTRAL LAB,BLOOD,AUTOMATED,PRE-DOSE,0,2025-07-15,0
NCSTUDY01,LB,NCSTUDY01-ANIMAL0047,3,WBC,White Blood Cell Count,14.3,10^3/µL,14.3,14.3,10^3/µL,5.0,15.0,N,,,Y,CENTRAL LAB,BLOOD,AUTOMATED,PRE-DOSE,0,2025-07-15,0
NCSTUDY01,LB,NCSTUDY01-ANIMAL0047,4,PLT,Platelet Count,723.8,10^3/µL,723.8,723.8,10^3/µL,500.0,1300.0,N,,,Y,CENTRAL LAB,BLOOD,AUTOMATED,PRE-DOSE,0,2025-07-15,0
NCSTUDY01,LB,NCSTUDY01-ANIMAL0047,5,ALT,Alanine Aminotransferase,42.4,U/L,42.4,42.4,U/L,20.0,90.0,N,,,Y,CENTRAL LAB,BLOOD,AUTOMATED,PRE-DOSE,0,2025-07-15,0
NCSTUDY01,LB,NCSTUDY01-ANIMAL0047,6,AST,Aspartate Aminotransferase,46.6,U/L,46.6,46.6,U/L,40.0,120.0,N,,,Y,CENTRAL LAB,BLOOD,AUTOMATED,PRE-DOSE,0,2025-07-15,0
NCSTUDY01,LB,NCSTUDY01-ANIMAL0047,7,GLUC,Glucose,120.5,mg/dL,120.5,120.5,mg/dL,70.0,150.0,N,,,Y,CENTRAL LAB,BLOOD,AUTOMATED,PRE-DOSE,0,2025-07-15,0
NCSTUDY01,LB,NCSTUDY01-ANIMAL0047,8,CREAT,Creatinine,0.2,mg/dL,0.2,0.2,mg/dL,0.2,0.6,L,,,Y,CENTRAL LAB,BLOOD,AUTOMATED,PRE-DOSE,0,2025-07-15,0
NCSTUDY01,LB,NCSTUDY01-ANIMAL0047,9,HGB,Hemoglobin,17.3,g/dL,17.3,17.3,g/dL,12.0,18.0,N,,,N,CENTRAL LAB,BLOOD,AUTOMATED,WEEK 2,14,2025-07-29,14
NCSTUDY01,LB,NCSTUDY01-ANIMAL0047,10,RBC,Red Blood Cell Count,6.3,10^6/µL,6.3,6.3,10^6/µL,6.0,10.0,N,,,N,CENTRAL LAB,BLOOD,AUTOMATED,WEEK 2,14,2025-07-29,14
NCSTUDY01,LB,NCSTUDY01-ANIMAL0047,11,WBC,White Blood Cell Count,13.9,10^3/µL,13.9,13.9,10^3/µL,5.0,15.0,N,,,N,CENTRAL LAB,BLOOD,AUTOMATED,WEEK 2,14,2025-07-29,14
NCSTUDY01,LB,NCSTUDY01-ANIMAL0047,12,PLT,Platelet Count,692.8,10^3/µL,692.8,692.8,10^3/µL,500.0,1300.0,N,,,N,CENTRAL LAB,BLOOD,AUTOMATED,WEEK 2,14,2025-07-29,14
NCSTUDY01,LB,NCSTUDY01-ANIMAL0047,13,ALT,Alanine Aminotransferase,40.5,U/L,40.5,40.5,U/L,20.0,90.0,N,,,N,CENTRAL LAB,BLOOD,AUTOMATED,WEEK 2,14,2025-07-29,14
NCSTUDY01,LB,NCSTUDY01-ANIMAL0047,14,AST,Aspartate Aminotransferase,45.3,U/L,45.3,45.3,U/L,40.0,120.0,N,,,N,CENTRAL LAB,BLOOD,AUTOMATED,WEEK 2,14,2025-07-29,14
NCSTUDY01,LB,NCSTUDY01-ANIMAL0047,15,GLUC,Glucose,121.0,mg/dL,121.0,121.0,mg/dL,70.0,150.0,N,,,N,CENTRAL LAB,BLOOD,AUTOMATED,WEEK 2,14,2025-07-29,14
NCSTUDY01,LB,NCSTUDY01-ANIMAL0047,16,CREAT,Creatinine,0.2,mg/dL,0.2,0.2,mg/dL,0.2,0.6,N,,,N,CENTRAL LAB,BLOOD,AUTOMATED,WEEK 2,14,2025-07-29,14
NCSTUDY01,LB,NCSTUDY01-ANIMAL0047,17,HGB,Hemoglobin,17.9,g/dL,17.9,17.9,g/dL,12.0,18.0,N,,,N,CENTRAL LAB,BLOOD,AUTOMATED,WEEK 4,28,2025-08-12,28
NCSTUDY01,LB,NCSTUDY01-ANIMAL0047,18,RBC,Red Blood Cell Count,6.5,10^6/µL,6.5,6.5,10^6/µL,6.0,10.0,N,,,N,CENTRAL LAB,BLOOD,AUTOMATED,WEEK 4,28,2025-08-12,28
NCSTUDY01,LB,NCSTUDY01-ANIMAL0047,19,WBC,White Blood Cell Count,14.5,10^3/µL,14.5,14.5,10^3/µL,5.0,15.0,N,,,N,CENTRAL LAB,BLOOD,AUTOMATED,WEEK 4,28,2025-08-12,28
NCSTUDY01,LB,NCSTUDY01-ANIMAL0047,20,PLT,Platelet Count,711.3,10^3/µL,711.3,711.3,10^3/µL,500.0,1300.0,N,,,N,CENTRAL LAB,BLOOD,AUTOMATED,WEEK 4,28,2025-08-12,28
NCSTUDY01,LB,NCSTUDY01-ANIMAL0047,21,ALT,Alanine Aminotransferase,42.7,U/L,42.7,42.7,U/L,20.0,90.0,N,,,N,CENTRAL LAB,BLOOD,AUTOMATED,WEEK 4,28,2025-08-12,28
NCSTUDY01,LB,NCSTUDY01-ANIMAL0047,22,AST,Aspartate Aminotransferase,42.9,U/L,42.9,42.9,U/L,40.0,120.0,N,,,N,CENTRAL LAB,BLOOD,AUTOMATED,WEEK 4,28,2025-08-12,28
NCSTUDY01,LB,NCSTUDY01-ANIMAL0047,23,GLUC,Glucose,123.2,mg/dL,123.2,123.2,mg/dL,70.0,150.0,N,,,N,CENTRAL LAB,BLOOD,AUTOMATED,WEEK 4,28,2025-08-12,28
NCSTUDY01,LB,NCSTUDY01-ANIMAL0047,24,CREAT,Creatinine,0.2,mg/dL,0.2,0.2,mg/dL,0.2,0.6,N,,,N,CENTRAL LAB,BLOOD,AUTOMATED,WEEK 4,28,2025-08-12,28
NCSTUDY01,LB,NCSTUDY01-ANIMAL0048,1,HGB,Hemoglobin,12.0,g/dL,12.0,12.0,g/dL,12.0,18.0,N,,,Y,CENTRAL LAB,BLOOD,AUTOMATED,PRE-DOSE,0,2025-10-09,0
NCSTUDY01,LB,NCSTUDY01-ANIMAL0048,2,RBC,Red Blood Cell Count,8.3,10^6/µL,8.3,8.3,10^6/µL,6.0,10.0,N,,,Y,CENTRAL LAB,BLOOD,AUTOMATED,PRE-DOSE,0,2025-10-09,0
NCSTUDY01,LB,NCSTUDY01-ANIMAL0048,3,WBC,White Blood Cell Count,5.8,10^3/µL,5.8,5.8,10^3/µL,5.0,15.0,N,,,Y,CENTRAL LAB,BLOOD,AUTOMATED,PRE-DOSE,0,2025-10-09,0
NCSTUDY01,LB,NCSTUDY01-ANIMAL0048,4,PLT,Platelet Count,1129.1,10^3/µL,1129.1,1129.1,10^3/µL,500.0,1300.0,N,,,Y,CENTRAL LAB,BLOOD,AUTOMATED,PRE-DOSE,0,2025-10-09,0
NCSTUDY01,LB,NCSTUDY01-ANIMAL0048,5,ALT,Alanine Aminotransferase,88.9,U/L,88.9,88.9,U/L,20.0,90.0,N,,,Y,CENTRAL LAB,BLOOD,AUTOMATED,PRE-DOSE,0,2025-10-09,0
NCSTUDY01,LB,NCSTUDY01-ANIMAL0048,6,AST,Aspartate Aminotransferase,65.7,U/L,65.7,65.7,U/L,40.0,120.0,N,,,Y,CENTRAL LAB,BLOOD,AUTOMATED,PRE-DOSE,0,2025-10-09,0
NCSTUDY01,LB,NCSTUDY01-ANIMAL0048,7,GLUC,Glucose,70.0,mg/dL,70.0,70.0,mg/dL,70.0,150.0,L,,,Y,CENTRAL LAB,BLOOD,AUTOMATED,PRE-DOSE,0,2025-10-09,0
NCSTUDY01,LB,NCSTUDY01-ANIMAL0048,8,CREAT,Creatinine,0.3,mg/dL,0.3,0.3,mg/dL,0.2,0.6,N,,,Y,CENTRAL LAB,BLOOD,AUTOMATED,PRE-DOSE,0,2025-10-09,0
NCSTUDY01,LB,NCSTUDY01-ANIMAL0048,9,HGB,Hemoglobin,13.2,g/dL,13.2,13.2,g/dL,12.0,18.0,N,,,N,CENTRAL LAB,BLOOD,AUTOMATED,WEEK 2,14,2025-10-23,14
NCSTUDY01,LB,NCSTUDY01-ANIMAL0048,10,RBC,Red Blood Cell Count,8.1,10^6/µL,8.1,8.1,10^6/µL,6.0,10.0,N,,,N,CENTRAL LAB,BLOOD,AUTOMATED,WEEK 2,14,2025-10-23,14
NCSTUDY01,LB,NCSTUDY01-ANIMAL0048,11,WBC,White Blood Cell Count,5.7,10^3/µL,5.7,5.7,10^3/µL,5.0,15.0,N,,,N,CENTRAL LAB,BLOOD,AUTOMATED,WEEK 2,14,2025-10-23,14
NCSTUDY01,LB,NCSTUDY01-ANIMAL0048,12,PLT,Platelet Count,1148.6,10^3/µL,1148.6,1148.6,10^3/µL,500.0,1300.0,N,,,N,CENTRAL LAB,BLOOD,AUTOMATED,WEEK 2,14,2025-10-23,14
NCSTUDY01,LB,NCSTUDY01-ANIMAL0048,13,ALT,Alanine Aminotransferase,83.2,U/L,83.2,83.2,U/L,20.0,90.0,N,,,N,CENTRAL LAB,BLOOD,AUTOMATED,WEEK 2,14,2025-10-23,14
NCSTUDY01,LB,NCSTUDY01-ANIMAL0048,14,AST,Aspartate Aminotransferase,71.0,U/L,71.0,71.0,U/L,40.0,120.0,N,,,N,CENTRAL LAB,BLOOD,AUTOMATED,WEEK 2,14,2025-10-23,14
NCSTUDY01,LB,NCSTUDY01-ANIMAL0048,15,GLUC,Glucose,72.3,mg/dL,72.3,72.3,mg/dL,70.0,150.0,N,,,N,CENTRAL LAB,BLOOD,AUTOMATED,WEEK 2,14,2025-10-23,14
NCSTUDY01,LB,NCSTUDY01-ANIMAL0048,16,CREAT,Creatinine,0.3,mg/dL,0.3,0.3,mg/dL,0.2,0.6,N,,,N,CENTRAL LAB,BLOOD,AUTOMATED,WEEK 2,14,2025-10-23,14
NCSTUDY01,LB,NCSTUDY01-ANIMAL0048,17,HGB,Hemoglobin,12.8,g/dL,12.8,12.8,g/dL,12.0,18.0,N,,,N,CENTRAL LAB,BLOOD,AUTOMATED,WEEK 4,28,2025-11-06,28
NCSTUDY01,LB,NCSTUDY01-ANIMAL0048,18,RBC,Red Blood Cell Count,7.8,10^6/µL,7.8,7.8,10^6/µL,6.0,10.0,N,,,N,CENTRAL LAB,BLOOD,AUTOMATED,WEEK 4,28,2025-11-06,28
NCSTUDY01,LB,NCSTUDY01-ANIMAL0048,19,WBC,White Blood Cell Count,5.9,10^3/µL,5.9,5.9,10^3/µL,5.0,15.0,N,,,N,CENTRAL LAB,BLOOD,AUTOMATED,WEEK 4,28,2025-11-06,28
NCSTUDY01,LB,NCSTUDY01-ANIMAL0048,20,PLT,Platelet Count,1136.6,10^3/µL,1136.6,1136.6,10^3/µL,500.0,1300.0,N,,,N,CENTRAL LAB,BLOOD,AUTOMATED,WEEK 4,28,2025-11-06,28
NCSTUDY01,LB,NCSTUDY01-ANIMAL0048,21,ALT,Alanine Aminotransferase,85.4,U/L,85.4,85.4,U/L,20.0,90.0,N,,,N,CENTRAL LAB,BLOOD,AUTOMATED,WEEK 4,28,2025-11-06,28
NCSTUDY01,LB,NCSTUDY01-ANIMAL0048,22,AST,Aspartate Aminotransferase,67.3,U/L,67.3,67.3,U/L,40.0,120.0,N,,,N,CENTRAL LAB,BLOOD,AUTOMATED,WEEK 4,28,2025-11-06,28
NCSTUDY01,LB,NCSTUDY01-ANIMAL0048,23,GLUC,Glucose,70.6,mg/dL,70.6,70.6,mg/dL,70.0,150.0,N,,,N,CENTRAL LAB,BLOOD,AUTOMATED,WEEK 4,28,2025-11-06,28
NCSTUDY01,LB,NCSTUDY01-ANIMAL0048,24,CREAT,Creatinine,0.3,mg/dL,0.3,0.3,mg/dL,0.2,0.6,N,,,N,CENTRAL LAB,BLOOD,AUTOMATED,WEEK 4,28,2025-11-06,28
NCSTUDY01,LB,NCSTUDY01-ANIMAL0049,1,HGB,Hemoglobin,14.3,g/dL,14.3,14.3,g/dL,12.0,18.0,N,,,Y,CENTRAL LAB,BLOOD,AUTOMATED,PRE-DOSE,0,2025-06-08,0
NCSTUDY01,LB,NCSTUDY01-ANIMAL0049,2,RBC,Red Blood Cell Count,7.8,10^6/µL,7.8,7.8,10^6/µL,6.0,10.0,N,,,Y,CENTRAL LAB,BLOOD,AUTOMATED,PRE-DOSE,0,2025-06-08,0
NCSTUDY01,LB,NCSTUDY01-ANIMAL0049,3,WBC,White Blood Cell Count,5.7,10^3/µL,5.7,5.7,10^3/µL,5.0,15.0,N,,,Y,CENTRAL LAB,BLOOD,AUTOMATED,PRE-DOSE,0,2025-06-08,0
NCSTUDY01,LB,NCSTUDY01-ANIMAL0049,4,PLT,Platelet Count,954.6,10^3/µL,954.6,954.6,10^3/µL,500.0,1300.0,N,,,Y,CENTRAL LAB,BLOOD,AUTOMATED,PRE-DOSE,0,2025-06-08,0
NCSTUDY01,LB,NCSTUDY01-ANIMAL0049,5,ALT,Alanine Aminotransferase,22.6,U/L,22.6,22.6,U/L,20.0,90.0,N,,,Y,CENTRAL LAB,BLOOD,AUTOMATED,PRE-DOSE,0,2025-06-08,0
NCSTUDY01,LB,NCSTUDY01-ANIMAL0049,6,AST,Aspartate Aminotransferase,104.4,U/L,104.4,104.4,U/L,40.0,120.0,N,,,Y,CENTRAL LAB,BLOOD,AUTOMATED,PRE-DOSE,0,2025-06-08,0
NCSTUDY01,LB,NCSTUDY01-ANIMAL0049,7,GLUC,Glucose,135.8,mg/dL,135.8,135.8,mg/dL,70.0,150.0,N,,,Y,CENTRAL LAB,BLOOD,AUTOMATED,PRE-DOSE,0,2025-06-08,0
NCSTUDY01,LB,NCSTUDY01-ANIMAL0049,8,CREAT,Creatinine,0.5,mg/dL,0.5,0.5,mg/dL,0.2,0.6,N,,,Y,CENTRAL LAB,BLOOD,AUTOMATED,PRE-DOSE,0,2025-06-08,0
NCSTUDY01,LB,NCSTUDY01-ANIMAL0049,9,HGB,Hemoglobin,14.9,g/dL,14.9,14.9,g/dL,12.0,18.0,N,,,N,CENTRAL LAB,BLOOD,AUTOMATED,WEEK 2,14,2025-06-22,14
NCSTUDY01,LB,NCSTUDY01-ANIMAL0049,10,RBC,Red Blood Cell Count,8.7,10^6/µL,8.7,8.7,10^6/µL,6.0,10.0,N,,,N,CENTRAL LAB,BLOOD,AUTOMATED,WEEK 2,14,2025-06-22,14
NCSTUDY01,LB,NCSTUDY01-ANIMAL0049,11,WBC,White Blood Cell Count,5.6,10^3/µL,5.6,5.6,10^3/µL,5.0,15.0,N,,,N,CENTRAL LAB,BLOOD,AUTOMATED,WEEK 2,14,2025-06-22,14
NCSTUDY01,LB,NCSTUDY01-ANIMAL0049,12,PLT,Platelet Count,882.5,10^3/µL,882.5,882.5,10^3/µL,500.0,1300.0,N,,,N,CENTRAL LAB,BLOOD,AUTOMATED,WEEK 2,14,2025-06-22,14
NCSTUDY01,LB,NCSTUDY01-ANIMAL0049,13,ALT,Alanine Aminotransferase,22.2,U/L,22.2,22.2,U/L,20.0,90.0,N,,,N,CENTRAL LAB,BLOOD,AUTOMATED,WEEK 2,14,2025-06-22,14
NCSTUDY01,LB,NCSTUDY01-ANIMAL0049,14,AST,Aspartate Aminotransferase,119.1,U/L,119.1,119.1,U/L,40.0,120.0,N,,,N,CENTRAL LAB,BLOOD,AUTOMATED,WEEK 2,14,2025-06-22,14
NCSTUDY01,LB,NCSTUDY01-ANIMAL0049,15,GLUC,Glucose,128.6,mg/dL,128.6,128.6,mg/dL,70.0,150.0,N,,,N,CENTRAL LAB,BLOOD,AUTOMATED,WEEK 2,14,2025-06-22,14
NCSTUDY01,LB,NCSTUDY01-ANIMAL0049,16,CREAT,Creatinine,0.5,mg/dL,0.5,0.5,mg/dL,0.2,0.6,N,,,N,CENTRAL LAB,BLOOD,AUTOMATED,WEEK 2,14,2025-06-22,14
NCSTUDY01,LB,NCSTUDY01-ANIMAL0049,17,HGB,Hemoglobin,16.8,g/dL,16.8,16.8,g/dL,12.0,18.0,N,,,N,CENTRAL LAB,BLOOD,AUTOMATED,WEEK 4,28,2025-07-06,28
NCSTUDY01,LB,NCSTUDY01-ANIMAL0049,18,RBC,Red Blood Cell Count,7.9,10^6/µL,7.9,7.9,10^6/µL,6.0,10.0,N,,,N,CENTRAL LAB,BLOOD,AUTOMATED,WEEK 4,28,2025-07-06,28
NCSTUDY01,LB,NCSTUDY01-ANIMAL0049,19,WBC,White Blood Cell Count,6.3,10^3/µL,6.3,6.3,10^3/µL,5.0,15.0,N,,,N,CENTRAL LAB,BLOOD,AUTOMATED,WEEK 4,28,2025-07-06,28
NCSTUDY01,LB,NCSTUDY01-ANIMAL0049,20,PLT,Platelet Count,794.9,10^3/µL,794.9,794.9,10^3/µL,500.0,1300.0,N,,,N,CENTRAL LAB,BLOOD,AUTOMATED,WEEK 4,28,2025-07-06,28
NCSTUDY01,LB,NCSTUDY01-ANIMAL0049,21,ALT,Alanine Aminotransferase,19.6,U/L,19.6,19.6,U/L,20.0,90.0,L,,,N,CENTRAL LAB,BLOOD,AUTOMATED,WEEK 4,28,2025-07-06,28
NCSTUDY01,LB,NCSTUDY01-ANIMAL0049,22,AST,Aspartate Aminotransferase,109.9,U/L,109.9,109.9,U/L,40.0,120.0,N,,,N,CENTRAL LAB,BLOOD,AUTOMATED,WEEK 4,28,2025-07-06,28
NCSTUDY01,LB,NCSTUDY01-ANIMAL0049,23,GLUC,Glucose,146.2,mg/dL,146.2,146.2,mg/dL,70.0,150.0,N,,,N,CENTRAL LAB,BLOOD,AUTOMATED,WEEK 4,28,2025-07-06,28
NCSTUDY01,LB,NCSTUDY01-ANIMAL0049,24,CREAT,Creatinine,0.4,mg/dL,0.4,0.4,mg/dL,0.2,0.6,N,,,N,CENTRAL LAB,BLOOD,AUTOMATED,WEEK 4,28,2025-07-06,28
NCSTUDY01,LB,NCSTUDY01-ANIMAL0050,1,HGB,Hemoglobin,15.8,g/dL,15.8,15.8,g/dL,12.0,18.0,N,,,Y,CENTRAL LAB,BLOOD,AUTOMATED,PRE-DOSE,0,2025-06-05,0
NCSTUDY01,LB,NCSTUDY01-ANIMAL0050,2,RBC,Red Blood Cell Count,8.2,10^6/µL,8.2,8.2,10^6/µL,6.0,10.0,N,,,Y,CENTRAL LAB,BLOOD,AUTOMATED,PRE-DOSE,0,2025-06-05,0
NCSTUDY01,LB,NCSTUDY01-ANIMAL0050,3,WBC,White Blood Cell Count,6.0,10^3/µL,6.0,6.0,10^3/µL,5.0,15.0,N,,,Y,CENTRAL LAB,BLOOD,AUTOMATED,PRE-DOSE,0,2025-06-05,0
NCSTUDY01,LB,NCSTUDY01-ANIMAL0050,4,PLT,Platelet Count,1163.5,10^3/µL,1163.5,1163.5,10^3/µL,500.0,1300.0,N,,,Y,CENTRAL LAB,BLOOD,AUTOMATED,PRE-DOSE,0,2025-06-05,0
NCSTUDY01,LB,NCSTUDY01-ANIMAL0050,5,ALT,Alanine Aminotransferase,29.1,U/L,29.1,29.1,U/L,20.0,90.0,N,,,Y,CENTRAL LAB,BLOOD,AUTOMATED,PRE-DOSE,0,2025-06-05,0
NCSTUDY01,LB,NCSTUDY01-ANIMAL0050,6,AST,Aspartate Aminotransferase,52.3,U/L,52.3,52.3,U/L,40.0,120.0,N,,,Y,CENTRAL LAB,BLOOD,AUTOMATED,PRE-DOSE,0,2025-06-05,0
NCSTUDY01,LB,NCSTUDY01-ANIMAL0050,7,GLUC,Glucose,120.0,mg/dL,120.0,120.0,mg/dL,70.0,150.0,N,,,Y,CENTRAL LAB,BLOOD,AUTOMATED,PRE-DOSE,0,2025-06-05,0
NCSTUDY01,LB,NCSTUDY01-ANIMAL0050,8,CREAT,Creatinine,0.3,mg/dL,0.3,0.3,mg/dL,0.2,0.6,N,,,Y,CENTRAL LAB,BLOOD,AUTOMATED,PRE-DOSE,0,2025-06-05,0
NCSTUDY01,LB,NCSTUDY01-ANIMAL0050,9,HGB,Hemoglobin,16.6,g/dL,16.6,16.6,g/dL,12.0,18.0,N,,,N,CENTRAL LAB,BLOOD,AUTOMATED,WEEK 2,14,2025-06-19,14
NCSTUDY01,LB,NCSTUDY01-ANIMAL0050,10,RBC,Red Blood Cell Count,8.5,10^6/µL,8.5,8.5,10^6/µL,6.0,10.0,N,,,N,CENTRAL LAB,BLOOD,AUTOMATED,WEEK 2,14,2025-06-19,14
NCSTUDY01,LB,NCSTUDY01-ANIMAL0050,11,WBC,White Blood Cell Count,5.6,10^3/µL,5.6,5.6,10^3/µL,5.0,15.0,N,,,N,CENTRAL LAB,BLOOD,AUTOMATED,WEEK 2,14,2025-06-19,14
NCSTUDY01,LB,NCSTUDY01-ANIMAL0050,12,PLT,Platelet Count,1106.7,10^3/µL,1106.7,1106.7,10^3/µL,500.0,1300.0,N,,,N,CENTRAL LAB,BLOOD,AUTOMATED,WEEK 2,14,2025-06-19,14
NCSTUDY01,LB,NCSTUDY01-ANIMAL0050,13,ALT,Alanine Aminotransferase,28.9,U/L,28.9,28.9,U/L,20.0,90.0,N,,,N,CENTRAL LAB,BLOOD,AUTOMATED,WEEK 2,14,2025-06-19,14
NCSTUDY01,LB,NCSTUDY01-ANIMAL0050,14,AST,Aspartate Aminotransferase,51.7,U/L,51.7,51.7,U/L,40.0,120.0,N,,,N,CENTRAL LAB,BLOOD,AUTOMATED,WEEK 2,14,2025-06-19,14
NCSTUDY01,LB,NCSTUDY01-ANIMAL0050,15,GLUC,Glucose,131.4,mg/dL,131.4,131.4,mg/dL,70.0,150.0,N,,,N,CENTRAL LAB,BLOOD,AUTOMATED,WEEK 2,14,2025-06-19,14
NCSTUDY01,LB,NCSTUDY01-ANIMAL0050,16,CREAT,Creatinine,0.3,mg/dL,0.3,0.3,mg/dL,0.2,0.6,N,,,N,CENTRAL LAB,BLOOD,AUTOMATED,WEEK 2,14,2025-06-19,14
NCSTUDY01,LB,NCSTUDY01-ANIMAL0050,17,HGB,Hemoglobin,16.9,g/dL,16.9,16.9,g/dL,12.0,18.0,N,,,N,CENTRAL LAB,BLOOD,AUTOMATED,WEEK 4,28,2025-07-03,28
NCSTUDY01,LB,NCSTUDY01-ANIMAL0050,18,RBC,Red Blood Cell Count,8.0,10^6/µL,8.0,8.0,10^6/µL,6.0,10.0,N,,,N,CENTRAL LAB,BLOOD,AUTOMATED,WEEK 4,28,2025-07-03,28
NCSTUDY01,LB,NCSTUDY01-ANIMAL0050,19,WBC,White Blood Cell Count,5.9,10^3/µL,5.9,5.9,10^3/µL,5.0,15.0,N,,,N,CENTRAL LAB,BLOOD,AUTOMATED,WEEK 4,28,2025-07-03,28
NCSTUDY01,LB,NCSTUDY01-ANIMAL0050,20,PLT,Platelet Count,1113.1,10^3/µL,1113.1,1113.1,10^3/µL,500.0,1300.0,N,,,N,CENTRAL LAB,BLOOD,AUTOMATED,WEEK 4,28,2025-07-03,28
NCSTUDY01,LB,NCSTUDY01-ANIMAL0050,21,ALT,Alanine Aminotransferase,31.3,U/L,31.3,31.3,U/L,20.0,90.0,N,,,N,CENTRAL LAB,BLOOD,AUTOMATED,WEEK 4,28,2025-07-03,28
NCSTUDY01,LB,NCSTUDY01-ANIMAL0050,22,AST,Aspartate Aminotransferase,54.3,U/L,54.3,54.3,U/L,40.0,120.0,N,,,N,CENTRAL LAB,BLOOD,AUTOMATED,WEEK 4,28,2025-07-03,28
NCSTUDY01,LB,NCSTUDY01-ANIMAL0050,23,GLUC,Glucose,132.5,mg/dL,132.5,132.5,mg/dL,70.0,150.0,N,,,N,CENTRAL LAB,BLOOD,AUTOMATED,WEEK 4,28,2025-07-03,28
NCSTUDY01,LB,NCSTUDY01-ANIMAL0050,24,CREAT,Creatinine,0.3,mg/dL,0.3,0.3,mg/dL,0.2,0.6,N,,,N,CENTRAL LAB,BLOOD,AUTOMATED,WEEK 4,28,2025-07-03,28
NCSTUDY01,LB,NCSTUDY01-ANIMAL0051,1,HGB,Hemoglobin,13.1,g/dL,13.1,13.1,g/dL,12.0,18.0,N,,,Y,CENTRAL LAB,BLOOD,AUTOMATED,PRE-DOSE,0,2025-08-06,0
NCSTUDY01,LB,NCSTUDY01-ANIMAL0051,2,RBC,Red Blood Cell Count,9.7,10^6/µL,9.7,9.7,10^6/µL,6.0,10.0,N,,,Y,CENTRAL LAB,BLOOD,AUTOMATED,PRE-DOSE,0,2025-08-06,0
NCSTUDY01,LB,NCSTUDY01-ANIMAL0051,3,WBC,White Blood Cell Count,6.9,10^3/µL,6.9,6.9,10^3/µL,5.0,15.0,N,,,Y,CENTRAL LAB,BLOOD,AUTOMATED,PRE-DOSE,0,2025-08-06,0
NCSTUDY01,LB,NCSTUDY01-ANIMAL0051,4,PLT,Platelet Count,721.1,10^3/µL,721.1,721.1,10^3/µL,500.0,1300.0,N,,,Y,CENTRAL LAB,BLOOD,AUTOMATED,PRE-DOSE,0,2025-08-06,0
NCSTUDY01,LB,NCSTUDY01-ANIMAL0051,5,ALT,Alanine Aminotransferase,82.5,U/L,82.5,82.5,U/L,20.0,90.0,N,,,Y,CENTRAL LAB,BLOOD,AUTOMATED,PRE-DOSE,0,2025-08-06,0
NCSTUDY01,LB,NCSTUDY01-ANIMAL0051,6,AST,Aspartate Aminotransferase,58.2,U/L,58.2,58.2,U/L,40.0,120.0,N,,,Y,CENTRAL LAB,BLOOD,AUTOMATED,PRE-DOSE,0,2025-08-06,0
NCSTUDY01,LB,NCSTUDY01-ANIMAL0051,7,GLUC,Glucose,111.6,mg/dL,111.6,111.6,mg/dL,70.0,150.0,N,,,Y,CENTRAL LAB,BLOOD,AUTOMATED,PRE-DOSE,0,2025-08-06,0
NCSTUDY01,LB,NCSTUDY01-ANIMAL0051,8,CREAT,Creatinine,0.3,mg/dL,0.3,0.3,mg/dL,0.2,0.6,N,,,Y,CENTRAL LAB,BLOOD,AUTOMATED,PRE-DOSE,0,2025-08-06,0
NCSTUDY01,LB,NCSTUDY01-ANIMAL0051,9,HGB,Hemoglobin,13.2,g/dL,13.2,13.2,g/dL,12.0,18.0,N,,,N,CENTRAL LAB,BLOOD,AUTOMATED,WEEK 2,14,2025-08-20,14
NCSTUDY01,LB,NCSTUDY01-ANIMAL0051,10,RBC,Red Blood Cell Count,10.0,10^6/µL,10.0,10.0,10^6/µL,6.0,10.0,N,,,N,CENTRAL LAB,BLOOD,AUTOMATED,WEEK 2,14,2025-08-20,14
NCSTUDY01,LB,NCSTUDY01-ANIMAL0051,11,WBC,White Blood Cell Count,7.5,10^3/µL,7.5,7.5,10^3/µL,5.0,15.0,N,,,N,CENTRAL LAB,BLOOD,AUTOMATED,WEEK 2,14,2025-08-20,14
NCSTUDY01,LB,NCSTUDY01-ANIMAL0051,12,PLT,Platelet Count,762.6,10^3/µL,762.6,762.6,10^3/µL,500.0,1300.0,N,,,N,CENTRAL LAB,BLOOD,AUTOMATED,WEEK 2,14,2025-08-20,14
NCSTUDY01,LB,NCSTUDY01-ANIMAL0051,13,ALT,Alanine Aminotransferase,83.4,U/L,83.4,83.4,U/L,20.0,90.0,N,,,N,CENTRAL LAB,BLOOD,AUTOMATED,WEEK 2,14,2025-08-20,14
NCSTUDY01,LB,NCSTUDY01-ANIMAL0051,14,AST,Aspartate Aminotransferase,59.7,U/L,59.7,59.7,U/L,40.0,120.0,N,,,N,CENTRAL LAB,BLOOD,AUTOMATED,WEEK 2,14,2025-08-20,14
NCSTUDY01,LB,NCSTUDY01-ANIMAL0051,15,GLUC,Glucose,106.7,mg/dL,106.7,106.7,mg/dL,70.0,150.0,N,,,N,CENTRAL LAB,BLOOD,AUTOMATED,WEEK 2,14,2025-08-20,14
NCSTUDY01,LB,NCSTUDY01-ANIMAL0051,16,CREAT,Creatinine,0.3,mg/dL,0.3,0.3,mg/dL,0.2,0.6,N,,,N,CENTRAL LAB,BLOOD,AUTOMATED,WEEK 2,14,2025-08-20,14
NCSTUDY01,LB,NCSTUDY01-ANIMAL0051,17,HGB,Hemoglobin,13.0,g/dL,13.0,13.0,g/dL,12.0,18.0,N,,,N,CENTRAL LAB,BLOOD,AUTOMATED,WEEK 4,28,2025-09-03,28
NCSTUDY01,LB,NCSTUDY01-ANIMAL0051,18,RBC,Red Blood Cell Count,9.4,10^6/µL,9.4,9.4,10^6/µL,6.0,10.0,N,,,N,CENTRAL LAB,BLOOD,AUTOMATED,WEEK 4,28,2025-09-03,28
NCSTUDY01,LB,NCSTUDY01-ANIMAL0051,19,WBC,White Blood Cell Count,7.4,10^3/µL,7.4,7.4,10^3/µL,5.0,15.0,N,,,N,CENTRAL LAB,BLOOD,AUTOMATED,WEEK 4,28,2025-09-03,28
NCSTUDY01,LB,NCSTUDY01-ANIMAL0051,20,PLT,Platelet Count,735.5,10^3/µL,735.5,735.5,10^3/µL,500.0,1300.0,N,,,N,CENTRAL LAB,BLOOD,AUTOMATED,WEEK 4,28,2025-09-03,28
NCSTUDY01,LB,NCSTUDY01-ANIMAL0051,21,ALT,Alanine Aminotransferase,80.7,U/L,80.7,80.7,U/L,20.0,90.0,N,,,N,CENTRAL LAB,BLOOD,AUTOMATED,WEEK 4,28,2025-09-03,28
NCSTUDY01,LB,NCSTUDY01-ANIMAL0051,22,AST,Aspartate Aminotransferase,56.0,U/L,56.0,56.0,U/L,40.0,120.0,N,,,N,CENTRAL LAB,BLOOD,AUTOMATED,WEEK 4,28,2025-09-03,28
NCSTUDY01,LB,NCSTUDY01-ANIMAL0051,23,GLUC,Glucose,110.4,mg/dL,110.4,110.4,mg/dL,70.0,150.0,N,,,N,CENTRAL LAB,BLOOD,AUTOMATED,WEEK 4,28,2025-09-03,28
NCSTUDY01,LB,NCSTUDY01-ANIMAL0051,24,CREAT,Creatinine,0.3,mg/dL,0.3,0.3,mg/dL,0.2,0.6,N,,,N,CENTRAL LAB,BLOOD,AUTOMATED,WEEK 4,28,2025-09-03,28
NCSTUDY01,LB,NCSTUDY01-ANIMAL0052,1,HGB,Hemoglobin,18.8,g/dL,18.8,18.8,g/dL,12.0,18.0,H,,,Y,CENTRAL LAB,BLOOD,AUTOMATED,PRE-DOSE,0,2025-10-17,0
NCSTUDY01,LB,NCSTUDY01-ANIMAL0052,2,RBC,Red Blood Cell Count,6.5,10^6/µL,6.5,6.5,10^6/µL,6.0,10.0,N,,,Y,CENTRAL LAB,BLOOD,AUTOMATED,PRE-DOSE,0,2025-10-17,0
NCSTUDY01,LB,NCSTUDY01-ANIMAL0052,3,WBC,White Blood Cell Count,12.4,10^3/µL,12.4,12.4,10^3/µL,5.0,15.0,N,,,Y,CENTRAL LAB,BLOOD,AUTOMATED,PRE-DOSE,0,2025-10-17,0
NCSTUDY01,LB,NCSTUDY01-ANIMAL0052,4,PLT,Platelet Count,877.9,10^3/µL,877.9,877.9,10^3/µL,500.0,1300.0,N,,,Y,CENTRAL LAB,BLOOD,AUTOMATED,PRE-DOSE,0,2025-10-17,0
NCSTUDY01,LB,NCSTUDY01-ANIMAL0052,5,ALT,Alanine Aminotransferase,24.5,U/L,24.5,24.5,U/L,20.0,90.0,N,,,Y,CENTRAL LAB,BLOOD,AUTOMATED,PRE-DOSE,0,2025-10-17,0
NCSTUDY01,LB,NCSTUDY01-ANIMAL0052,6,AST,Aspartate Aminotransferase,87.7,U/L,87.7,87.7,U/L,40.0,120.0,N,,,Y,CENTRAL LAB,BLOOD,AUTOMATED,PRE-DOSE,0,2025-10-17,0
NCSTUDY01,LB,NCSTUDY01-ANIMAL0052,7,GLUC,Glucose,77.1,mg/dL,77.1,77.1,mg/dL,70.0,150.0,N,,,Y,CENTRAL LAB,BLOOD,AUTOMATED,PRE-DOSE,0,2025-10-17,0
NCSTUDY01,LB,NCSTUDY01-ANIMAL0052,8,CREAT,Creatinine,0.5,mg/dL,0.5,0.5,mg/dL,0.2,0.6,N,,,Y,CENTRAL LAB,BLOOD,AUTOMATED,PRE-DOSE,0,2025-10-17,0
NCSTUDY01,LB,NCSTUDY01-ANIMAL0052,9,HGB,Hemoglobin,18.5,g/dL,18.5,18.5,g/dL,12.0,18.0,H,,,N,CENTRAL LAB,BLOOD,AUTOMATED,WEEK 2,14,2025-10-31,14
NCSTUDY01,LB,NCSTUDY01-ANIMAL0052,10,RBC,Red Blood Cell Count,7.0,10^6/µL,7.0,7.0,10^6/µL,6.0,10.0,N,,,N,CENTRAL LAB,BLOOD,AUTOMATED,WEEK 2,14,2025-10-31,14
NCSTUDY01,LB,NCSTUDY01-ANIMAL0052,11,WBC,White Blood Cell Count,11.6,10^3/µL,11.6,11.6,10^3/µL,5.0,15.0,N,,,N,CENTRAL LAB,BLOOD,AUTOMATED,WEEK 2,14,2025-10-31,14
NCSTUDY01,LB,NCSTUDY01-ANIMAL0052,12,PLT,Platelet Count,909.1,10^3/µL,909.1,909.1,10^3/µL,500.0,1300.0,N,,,N,CENTRAL LAB,BLOOD,AUTOMATED,WEEK 2,14,2025-10-31,14
NCSTUDY01,LB,NCSTUDY01-ANIMAL0052,13,ALT,Alanine Aminotransferase,26.1,U/L,26.1,26.1,U/L,20.0,90.0,N,,,N,CENTRAL LAB,BLOOD,AUTOMATED,WEEK 2,14,2025-10-31,14
NCSTUDY01,LB,NCSTUDY01-ANIMAL0052,14,AST,Aspartate Aminotransferase,90.1,U/L,90.1,90.1,U/L,40.0,120.0,N,,,N,CENTRAL LAB,BLOOD,AUTOMATED,WEEK 2,14,2025-10-31,14
NCSTUDY01,LB,NCSTUDY01-ANIMAL0052,15,GLUC,Glucose,75.0,mg/dL,75.0,75.0,mg/dL,70.0,150.0,N,,,N,CENTRAL LAB,BLOOD,AUTOMATED,WEEK 2,14,2025-10-31,14
NCSTUDY01,LB,NCSTUDY01-ANIMAL0052,16,CREAT,Creatinine,0.5,mg/dL,0.5,0.5,mg/dL,0.2,0.6,N,,,N,CENTRAL LAB,BLOOD,AUTOMATED,WEEK 2,14,2025-10-31,14
NCSTUDY01,LB,NCSTUDY01-ANIMAL0052,17,HGB,Hemoglobin,17.5,g/dL,17.5,17.5,g/dL,12.0,18.0,N,,,N,CENTRAL LAB,BLOOD,AUTOMATED,WEEK 4,28,2025-11-14,28
NCSTUDY01,LB,NCSTUDY01-ANIMAL0052,18,RBC,Red Blood Cell Count,6.4,10^6/µL,6.4,6.4,10^6/µL,6.0,10.0,N,,,N,CENTRAL LAB,BLOOD,AUTOMATED,WEEK 4,28,2025-11-14,28
NCSTUDY01,LB,NCSTUDY01-ANIMAL0052,19,WBC,White Blood Cell Count,11.4,10^3/µL,11.4,11.4,10^3/µL,5.0,15.0,N,,,N,CENTRAL LAB,BLOOD,AUTOMATED,WEEK 4,28,2025-11-14,28
NCSTUDY01,LB,NCSTUDY01-ANIMAL0052,20,PLT,Platelet Count,848.5,10^3/µL,848.5,848.5,10^3/µL,500.0,1300.0,N,,,N,CENTRAL LAB,BLOOD,AUTOMATED,WEEK 4,28,2025-11-14,28
NCSTUDY01,LB,NCSTUDY01-ANIMAL0052,21,ALT,Alanine Aminotransferase,24.8,U/L,24.8,24.8,U/L,20.0,90.0,N,,,N,CENTRAL LAB,BLOOD,AUTOMATED,WEEK 4,28,2025-11-14,28
NCSTUDY01,LB,NCSTUDY01-ANIMAL0052,22,AST,Aspartate Aminotransferase,91.6,U/L,91.6,91.6,U/L,40.0,120.0,N,,,N,CENTRAL LAB,BLOOD,AUTOMATED,WEEK 4,28,2025-11-14,28
NCSTUDY01,LB,NCSTUDY01-ANIMAL0052,23,GLUC,Glucose,76.1,mg/dL,76.1,76.1,mg/dL,70.0,150.0,N,,,N,CENTRAL LAB,BLOOD,AUTOMATED,WEEK 4,28,2025-11-14,28
NCSTUDY01,LB,NCSTUDY01-ANIMAL0052,24,CREAT,Creatinine,0.5,mg/dL,0.5,0.5,mg/dL,0.2,0.6,N,,,N,CENTRAL LAB,BLOOD,AUTOMATED,WEEK 4,28,2025-11-14,28
NCSTUDY01,LB,NCSTUDY01-ANIMAL0053,1,HGB,Hemoglobin,13.2,g/dL,13.2,13.2,g/dL,12.0,18.0,N,,,Y,CENTRAL LAB,BLOOD,AUTOMATED,PRE-DOSE,0,2025-07-19,0
NCSTUDY01,LB,NCSTUDY01-ANIMAL0053,2,RBC,Red Blood Cell Count,8.6,10^6/µL,8.6,8.6,10^6/µL,6.0,10.0,N,,,Y,CENTRAL LAB,BLOOD,AUTOMATED,PRE-DOSE,0,2025-07-19,0
NCSTUDY01,LB,NCSTUDY01-ANIMAL0053,3,WBC,White Blood Cell Count,14.1,10^3/µL,14.1,14.1,10^3/µL,5.0,15.0,N,,,Y,CENTRAL LAB,BLOOD,AUTOMATED,PRE-DOSE,0,2025-07-19,0
NCSTUDY01,LB,NCSTUDY01-ANIMAL0053,4,PLT,Platelet Count,929.3,10^3/µL,929.3,929.3,10^3/µL,500.0,1300.0,N,,,Y,CENTRAL LAB,BLOOD,AUTOMATED,PRE-DOSE,0,2025-07-19,0
NCSTUDY01,LB,NCSTUDY01-ANIMAL0053,5,ALT,Alanine Aminotransferase,57.3,U/L,57.3,57.3,U/L,20.0,90.0,N,,,Y,CENTRAL LAB,BLOOD,AUTOMATED,PRE-DOSE,0,2025-07-19,0
NCSTUDY01,LB,NCSTUDY01-ANIMAL0053,6,AST,Aspartate Aminotransferase,116.6,U/L,116.6,116.6,U/L,40.0,120.0,N,,,Y,CENTRAL LAB,BLOOD,AUTOMATED,PRE-DOSE,0,2025-07-19,0
NCSTUDY01,LB,NCSTUDY01-ANIMAL0053,7,GLUC,Glucose,111.3,mg/dL,111.3,111.3,mg/dL,70.0,150.0,N,,,Y,CENTRAL LAB,BLOOD,AUTOMATED,PRE-DOSE,0,2025-07-19,0
NCSTUDY01,LB,NCSTUDY01-ANIMAL0053,8,CREAT,Creatinine,0.5,mg/dL,0.5,0.5,mg/dL,0.2,0.6,N,,,Y,CENTRAL LAB,BLOOD,AUTOMATED,PRE-DOSE,0,2025-07-19,0
NCSTUDY01,LB,NCSTUDY01-ANIMAL0053,9,HGB,Hemoglobin,12.1,g/dL,12.1,12.1,g/dL,12.0,18.0,N,,,N,CENTRAL LAB,BLOOD,AUTOMATED,WEEK 2,14,2025-08-02,14
NCSTUDY01,LB,NCSTUDY01-ANIMAL0053,10,RBC,Red Blood Cell Count,9.1,10^6/µL,9.1,9.1,10^6/µL,6.0,10.0,N,,,N,CENTRAL LAB,BLOOD,AUTOMATED,WEEK 2,14,2025-08-02,14
NCSTUDY01,LB,NCSTUDY01-ANIMAL0053,11,WBC,White Blood Cell Count,14.3,10^3/µL,14.3,14.3,10^3/µL,5.0,15.0,N,,,N,CENTRAL LAB,BLOOD,AUTOMATED,WEEK 2,14,2025-08-02,14
NCSTUDY01,LB,NCSTUDY01-ANIMAL0053,12,PLT,Platelet Count,937.2,10^3/µL,937.2,937.2,10^3/µL,500.0,1300.0,N,,,N,CENTRAL LAB,BLOOD,AUTOMATED,WEEK 2,14,2025-08-02,14
NCSTUDY01,LB,NCSTUDY01-ANIMAL0053,13,ALT,Alanine Aminotransferase,59.7,U/L,59.7,59.7,U/L,20.0,90.0,N,,,N,CENTRAL LAB,BLOOD,AUTOMATED,WEEK 2,14,2025-08-02,14
NCSTUDY01,LB,NCSTUDY01-ANIMAL0053,14,AST,Aspartate Aminotransferase,129.9,U/L,129.9,129.9,U/L,40.0,120.0,H,,,N,CENTRAL LAB,BLOOD,AUTOMATED,WEEK 2,14,2025-08-02,14
NCSTUDY01,LB,NCSTUDY01-ANIMAL0053,15,GLUC,Glucose,105.1,mg/dL,105.1,105.1,mg/dL,70.0,150.0,N,,,N,CENTRAL LAB,BLOOD,AUTOMATED,WEEK 2,14,2025-08-02,14
NCSTUDY01,LB,NCSTUDY01-ANIMAL0053,16,CREAT,Creatinine,0.5,mg/dL,0.5,0.5,mg/dL,0.2,0.6,N,,,N,CENTRAL LAB,BLOOD,AUTOMATED,WEEK 2,14,2025-08-02,14
NCSTUDY01,LB,NCSTUDY01-ANIMAL0053,17,HGB,Hemoglobin,10.6,g/dL,10.6,10.6,g/dL,12.0,18.0,L,,,N,CENTRAL LAB,BLOOD,AUTOMATED,WEEK 4,28,2025-08-16,28
NCSTUDY01,LB,NCSTUDY01-ANIMAL0053,18,RBC,Red Blood Cell Count,9.5,10^6/µL,9.5,9.5,10^6/µL,6.0,10.0,N,,,N,CENTRAL LAB,BLOOD,AUTOMATED,WEEK 4,28,2025-08-16,28
NCSTUDY01,LB,NCSTUDY01-ANIMAL0053,19,WBC,White Blood Cell Count,15.6,10^3/µL,15.6,15.6,10^3/µL,5.0,15.0,H,,,N,CENTRAL LAB,BLOOD,AUTOMATED,WEEK 4,28,2025-08-16,28
NCSTUDY01,LB,NCSTUDY01-ANIMAL0053,20,PLT,Platelet Count,1029.2,10^3/µL,1029.2,1029.2,10^3/µL,500.0,1300.0,N,,,N,CENTRAL LAB,BLOOD,AUTOMATED,WEEK 4,28,2025-08-16,28
NCSTUDY01,LB,NCSTUDY01-ANIMAL0053,21,ALT,Alanine Aminotransferase,47.6,U/L,47.6,47.6,U/L,20.0,90.0,N,,,N,CENTRAL LAB,BLOOD,AUTOMATED,WEEK 4,28,2025-08-16,28
NCSTUDY01,LB,NCSTUDY01-ANIMAL0053,22,AST,Aspartate Aminotransferase,95.7,U/L,95.7,95.7,U/L,40.0,120.0,N,,,N,CENTRAL LAB,BLOOD,AUTOMATED,WEEK 4,28,2025-08-16,28
NCSTUDY01,LB,NCSTUDY01-ANIMAL0053,23,GLUC,Glucose,118.5,mg/dL,118.5,118.5,mg/dL,70.0,150.0,N,,,N,CENTRAL LAB,BLOOD,AUTOMATED,WEEK 4,28,2025-08-16,28
NCSTUDY01,LB,NCSTUDY01-ANIMAL0053,24,CREAT,Creatinine,0.5,mg/dL,0.5,0.5,mg/dL,0.2,0.6,N,,,N,CENTRAL LAB,BLOOD,AUTOMATED,WEEK 4,28,2025-08-16,28
NCSTUDY01,LB,NCSTUDY01-ANIMAL0054,1,HGB,Hemoglobin,12.1,g/dL,12.1,12.1,g/dL,12.0,18.0,N,,,Y,CENTRAL LAB,BLOOD,AUTOMATED,PRE-DOSE,0,2025-09-25,0
NCSTUDY01,LB,NCSTUDY01-ANIMAL0054,2,RBC,Red Blood Cell Count,8.2,10^6/µL,8.2,8.2,10^6/µL,6.0,10.0,N,,,Y,CENTRAL LAB,BLOOD,AUTOMATED,PRE-DOSE,0,2025-09-25,0
NCSTUDY01,LB,NCSTUDY01-ANIMAL0054,3,WBC,White Blood Cell Count,13.3,10^3/µL,13.3,13.3,10^3/µL,5.0,15.0,N,,,Y,CENTRAL LAB,BLOOD,AUTOMATED,PRE-DOSE,0,2025-09-25,0
NCSTUDY01,LB,NCSTUDY01-ANIMAL0054,4,PLT,Platelet Count,830.7,10^3/µL,830.7,830.7,10^3/µL,500.0,1300.0,N,,,Y,CENTRAL LAB,BLOOD,AUTOMATED,PRE-DOSE,0,2025-09-25,0
NCSTUDY01,LB,NCSTUDY01-ANIMAL0054,5,ALT,Alanine Aminotransferase,60.4,U/L,60.4,60.4,U/L,20.0,90.0,N,,,Y,CENTRAL LAB,BLOOD,AUTOMATED,PRE-DOSE,0,2025-09-25,0
NCSTUDY01,LB,NCSTUDY01-ANIMAL0054,6,AST,Aspartate Aminotransferase,71.5,U/L,71.5,71.5,U/L,40.0,120.0,N,,,Y,CENTRAL LAB,BLOOD,AUTOMATED,PRE-DOSE,0,2025-09-25,0
NCSTUDY01,LB,NCSTUDY01-ANIMAL0054,7,GLUC,Glucose,86.1,mg/dL,86.1,86.1,mg/dL,70.0,150.0,N,,,Y,CENTRAL LAB,BLOOD,AUTOMATED,PRE-DOSE,0,2025-09-25,0
NCSTUDY01,LB,NCSTUDY01-ANIMAL0054,8,CREAT,Creatinine,0.5,mg/dL,0.5,0.5,mg/dL,0.2,0.6,N,,,Y,CENTRAL LAB,BLOOD,AUTOMATED,PRE-DOSE,0,2025-09-25,0
NCSTUDY01,LB,NCSTUDY01-ANIMAL0054,9,HGB,Hemoglobin,14.0,g/dL,14.0,14.0,g/dL,12.0,18.0,N,,,N,CENTRAL LAB,BLOOD,AUTOMATED,WEEK 2,14,2025-10-09,14
NCSTUDY01,LB,NCSTUDY01-ANIMAL0054,10,RBC,Red Blood Cell Count,7.9,10^6/µL,7.9,7.9,10^6/µL,6.0,10.0,N,,,N,CENTRAL LAB,BLOOD,AUTOMATED,WEEK 2,14,2025-10-09,14
NCSTUDY01,LB,NCSTUDY01-ANIMAL0054,11,WBC,White Blood Cell Count,11.9,10^3/µL,11.9,11.9,10^3/µL,5.0,15.0,N,,,N,CENTRAL LAB,BLOOD,AUTOMATED,WEEK 2,14,2025-10-09,14
NCSTUDY01,LB,NCSTUDY01-ANIMAL0054,12,PLT,Platelet Count,873.9,10^3/µL,873.9,873.9,10^3/µL,500.0,1300.0,N,,,N,CENTRAL LAB,BLOOD,AUTOMATED,WEEK 2,14,2025-10-09,14
NCSTUDY01,LB,NCSTUDY01-ANIMAL0054,13,ALT,Alanine Aminotransferase,61.0,U/L,61.0,61.0,U/L,20.0,90.0,N,,,N,CENTRAL LAB,BLOOD,AUTOMATED,WEEK 2,14,2025-10-09,14
NCSTUDY01,LB,NCSTUDY01-ANIMAL0054,14,AST,Aspartate Aminotransferase,71.4,U/L,71.4,71.4,U/L,40.0,120.0,N,,,N,CENTRAL LAB,BLOOD,AUTOMATED,WEEK 2,14,2025-10-09,14
NCSTUDY01,LB,NCSTUDY01-ANIMAL0054,15,GLUC,Glucose,79.3,mg/dL,79.3,79.3,mg/dL,70.0,150.0,N,,,N,CENTRAL LAB,BLOOD,AUTOMATED,WEEK 2,14,2025-10-09,14
NCSTUDY01,LB,NCSTUDY01-ANIMAL0054,16,CREAT,Creatinine,0.5,mg/dL,0.5,0.5,mg/dL,0.2,0.6,N,,,N,CENTRAL LAB,BLOOD,AUTOMATED,WEEK 2,14,2025-10-09,14
NCSTUDY01,LB,NCSTUDY01-ANIMAL0054,17,HGB,Hemoglobin,9.8,g/dL,9.8,9.8,g/dL,12.0,18.0,L,,,N,CENTRAL LAB,BLOOD,AUTOMATED,WEEK 4,28,2025-10-23,28
NCSTUDY01,LB,NCSTUDY01-ANIMAL0054,18,RBC,Red Blood Cell Count,8.6,10^6/µL,8.6,8.6,10^6/µL,6.0,10.0,N,,,N,CENTRAL LAB,BLOOD,AUTOMATED,WEEK 4,28,2025-10-23,28
NCSTUDY01,LB,NCSTUDY01-ANIMAL0054,19,WBC,White Blood Cell Count,11.5,10^3/µL,11.5,11.5,10^3/µL,5.0,15.0,N,,,N,CENTRAL LAB,BLOOD,AUTOMATED,WEEK 4,28,2025-10-23,28
NCSTUDY01,LB,NCSTUDY01-ANIMAL0054,20,PLT,Platelet Count,730.9,10^3/µL,730.9,730.9,10^3/µL,500.0,1300.0,N,,,N,CENTRAL LAB,BLOOD,AUTOMATED,WEEK 4,28,2025-10-23,28
NCSTUDY01,LB,NCSTUDY01-ANIMAL0054,21,ALT,Alanine Aminotransferase,65.8,U/L,65.8,65.8,U/L,20.0,90.0,N,,,N,CENTRAL LAB,BLOOD,AUTOMATED,WEEK 4,28,2025-10-23,28
NCSTUDY01,LB,NCSTUDY01-ANIMAL0054,22,AST,Aspartate Aminotransferase,73.7,U/L,73.7,73.7,U/L,40.0,120.0,N,,,N,CENTRAL LAB,BLOOD,AUTOMATED,WEEK 4,28,2025-10-23,28
NCSTUDY01,LB,NCSTUDY01-ANIMAL0054,23,GLUC,Glucose,101.9,mg/dL,101.9,101.9,mg/dL,70.0,150.0,N,,,N,CENTRAL LAB,BLOOD,AUTOMATED,WEEK 4,28,2025-10-23,28
NCSTUDY01,LB,NCSTUDY01-ANIMAL0054,24,CREAT,Creatinine,0.5,mg/dL,0.5,0.5,mg/dL,0.2,0.6,N,,,N,CENTRAL LAB,BLOOD,AUTOMATED,WEEK 4,28,2025-10-23,28
NCSTUDY01,LB,NCSTUDY01-ANIMAL0055,1,HGB,Hemoglobin,15.9,g/dL,15.9,15.9,g/dL,12.0,18.0,N,,,Y,CENTRAL LAB,BLOOD,AUTOMATED,PRE-DOSE,0,2025-07-04,0
NCSTUDY01,LB,NCSTUDY01-ANIMAL0055,2,RBC,Red Blood Cell Count,9.9,10^6/µL,9.9,9.9,10^6/µL,6.0,10.0,N,,,Y,CENTRAL LAB,BLOOD,AUTOMATED,PRE-DOSE,0,2025-07-04,0
